time,seconds_elapsed,z,y,x
1790032076097451000,-0.903549072265625,-0.16519992053508759,0,0.15083470940589905
1790032076127449900,-0.873550048828125,-0.12689268589019775,0.05746084079146385,-0.05746084079146385
1790032076137490200,-0.863509765625,-0.05027823522686958,0.08619125932455063,0.090979665517807
1790032076147500000,-0.8535,-0.014365210197865963,0.08140286058187485,0.08379705995321274
1790032076157479200,-0.843520751953125,0,0.1173158809542656,0.07422025501728058
1790032076167489000,-0.833510986328125,-0.009576806798577309,0.12210428714752197,0.10773907601833344
1790032076177498600,-0.82350146484375,-0.12210428714752197,0.08619125932455063,0
1790032076187508500,-0.813491455078125,-0.15083470940589905,0.05267243832349777,0.06464344263076782
1790032076197518300,-0.803481689453125,-0.1149216815829277,0.08140286058187485,0.05506663769483566
1790032076207497500,-0.79350244140625,-0.08858546614646912,0.12928688526153564,0.0454898327589035
1790032076227578000,-0.773421875,-0.05267243832349777,0,0.09816227108240128
1790032076237587700,-0.763412353515625,-0.16519992053508759,0.05746084079146385,0.06464344263076782
1790032076257607400,-0.743392578125,-0.10295066982507706,0.019153613597154617,0.14844051003456116
1790032076267617000,-0.733383056640625,-0.09816227108240128,-0.08140286058187485,0.13168109953403473
1790032076277596400,-0.723403564453125,0.05267243832349777,-0.043095629662275314,0.06464344263076782
1790032076287636700,-0.71336328125,0,0,0.1149216815829277
1790032076297616000,-0.703384033203125,0.021547814831137657,-0.035913024097681046,0.031124621629714966
1790032076307656200,-0.69334375,-0.033518824726343155,-0.08619125932455063,-0.035913024097681046
1790032076327675600,-0.673324462890625,-0.08140286058187485,-0.06464344263076782,-0.009576806798577309
1790032076347695000,-0.653304931640625,-0.1173158809542656,-0.004788403399288654,0.13168109953403473
1790032076357705000,-0.643294921875,-0.06703764945268631,-0.009576806798577309,0.16998831927776337
1790032076447884500,-0.553115478515625,0.11971008777618408,0.0933738648891449,0.043095629662275314
1790032076487893000,-0.51310693359375,0.035913024097681046,0.07661445438861847,0.0933738648891449
1790032076497902800,-0.50309716796875,-0.090979665517807,0.14604631066322327,-0.08619125932455063
1790032076507882000,-0.493117919921875,-0.011971008032560349,-0.07182604819536209,0.06464344263076782
1790032076517891800,-0.483108154296875,0.07900865375995636,-0.1843535304069519,0.028730420395731926
1790032076527871000,-0.47312890625,-0.06224924325942993,-0.0071826050989329815,0.040701430290937424
1790032076537941800,-0.463058349609375,0.10055647045373917,0.05027823522686958,0.2106897532939911
1790032076547921200,-0.453078857421875,0.12210428714752197,-0.009576806798577309,0.07182604819536209
1790032076557930800,-0.4430693359375,-0.09816227108240128,-0.1173158809542656,-0.14365209639072418
1790032076567940600,-0.433059326171875,0.09816227108240128,-0.10295066982507706,0.12210428714752197
1790032076577919700,-0.423080322265625,0.002394201699644327,0.22744916379451752,0.019153613597154617
1790032076597939500,-0.403060546875,-0.22505496442317963,-0.08379705995321274,-0.05027823522686958
1790032076607979800,-0.393020263671875,-0.11013327538967133,-0.19632454216480255,0.10773907601833344
1790032076617959000,-0.383041015625,0.011971008032560349,-0.2561795711517334,0.15083470940589905
1790032076627968800,-0.37303125,0.002394201699644327,-0.21547815203666687,0.07900865375995636
1790032076638039600,-0.36296044921875,0.19153612852096558,-0.0454898327589035,0.1388636976480484
1790032076668068900,-0.33293115234375,0.09576806426048279,-0.033518824726343155,0.12689268589019775
1790032076678048000,-0.322951904296875,0.07661445438861847,-0.19153612852096558,0.047884032130241394
1790032076688057900,-0.312942138671875,-0.14844051003456116,-0.21308395266532898,0.028730420395731926
1790032076698037000,-0.302962890625,-0.2513911724090576,-0.2513911724090576,0.016759412363171577
1790032076708046800,-0.292953125,-0.21308395266532898,-0.16998831927776337,-0.0071826050989329815
1790032076718056400,-0.282943603515625,-0.13168109953403473,0.0694318488240242,0.05506663769483566
1790032076728066300,-0.27293359375,-0.09576806426048279,-0.038307227194309235,0.06703764945268631
1790032076738106600,-0.262893310546875,-0.07661445438861847,-0.031124621629714966,-0.07900865375995636
1790032076768074800,-0.23292529296875,0.038307227194309235,0.19153612852096558,0.2082955539226532
1790032076778084600,-0.222915283203125,0.17956513166427612,0.12928688526153564,0.10773907601833344
1790032076788094500,-0.212905517578125,0.1412578970193863,0.016759412363171577,0.09576806426048279
1790032076798104000,-0.20289599609375,0.08379705995321274,0.2059013396501541,0.06224924325942993
1790032076808114000,-0.192885986328125,0.035913024097681046,0.2849099934101105,0.043095629662275314
1790032076818154200,-0.182845703125,0.05746084079146385,0.22505496442317963,-0.026336219161748886
1790032076828164000,-0.1728359375,-0.07900865375995636,0.016759412363171577,-0.1388636976480484
1790032076838143200,-0.162856689453125,-0.13407529890537262,-0.023942016065120697,0.0454898327589035
1790032076848183600,-0.15281640625,-0.13168109953403473,0.10534487664699554,-0.004788403399288654
1790032076858193200,-0.142806884765625,-0.08619125932455063,0.10773907601833344,-0.047884032130241394
1790032076868203000,-0.132796875,0.08140286058187485,0.0933738648891449,-0.043095629662275314
1790032076878212900,-0.122787109375,0.08619125932455063,0.033518824726343155,0.05506663769483566
1790032076888222500,-0.112777587890625,-0.06224924325942993,0.13168109953403473,0.0933738648891449
1790032076898232300,-0.102767578125,0.0454898327589035,0.07661445438861847,0.038307227194309235
1790032076908211700,-0.092788330078125,0.11252748221158981,-0.011971008032560349,-0.05985504388809204
1790032076918221300,-0.08277880859375,-0.026336219161748886,-0.028730420395731926,0.026336219161748886
1790032076928231200,-0.072768798828125,-0.10295066982507706,0.07422025501728058,-0.0694318488240242
1790032076938240800,-0.06275927734375,-0.2322375625371933,0.14365209639072418,0.07422025501728058
1790032076948250600,-0.052749267578125,-0.10295066982507706,0.08379705995321274,0.0454898327589035
1790032076958260500,-0.042739501953125,-0.07182604819536209,0.038307227194309235,0.08379705995321274
1790032076968270000,-0.03272998046875,0.05027823522686958,-0.1149216815829277,0.05027823522686958
1790032076978249500,-0.02275048828125,-0.10055647045373917,0.07422025501728058,0.08619125932455063
1790032076988259000,-0.012740966796875,0.028730420395731926,-0.009576806798577309,0.08379705995321274
1790032077008278800,0.00727880859375,-0.17717093229293823,-0.004788403399288654,0.019153613597154617
1790032077018258000,0.0172578125,-0.12210428714752197,0.07422025501728058,0.12689268589019775
1790032077028267800,0.027267822265625,-0.033518824726343155,0.035913024097681046,0.12449848651885986
1790032077038308000,0.03730810546875,-0.0454898327589035,0.13168109953403473,0.08858546614646912
1790032077048287200,0.047287353515625,0.05985504388809204,0.0071826050989329815,0.021547814831137657
1790032077058297000,0.057297119140625,0.016759412363171577,0.08858546614646912,0.10295066982507706
1790032077068276200,0.067276123046875,-0.019153613597154617,0.090979665517807,-0.07900865375995636
1790032077088296000,0.0872958984375,-0.07900865375995636,0.040701430290937424,0.06224924325942993
1790032077108285000,0.107284912109375,-0.090979665517807,0.11252748221158981,-0.014365210197865963
1790032077118325000,0.117324951171875,-0.10295066982507706,0.24899697303771973,0.031124621629714966
1790032077128334800,0.1273349609375,0.05985504388809204,0.17717093229293823,-0.026336219161748886
1790032077138375200,0.137375244140625,0.021547814831137657,0.026336219161748886,-0.10055647045373917
1790032077148385000,0.147385009765625,-0.035913024097681046,-0.05985504388809204,-0.019153613597154617
1790032077168404500,0.167404541015625,-0.11013327538967133,0.10773907601833344,-0.002394201699644327
1790032077178383600,0.177383544921875,-0.0454898327589035,0.2322375625371933,-0.028730420395731926
1790032077198403300,0.1974033203125,-0.07900865375995636,-0.08379705995321274,-0.033518824726343155
1790032077208413000,0.207412841796875,-0.26096799969673157,-0.014365210197865963,0.002394201699644327
1790032077218453200,0.217453369140625,-0.08858546614646912,0.023942016065120697,0.10534487664699554
1790032077228463000,0.227463134765625,0.10534487664699554,-0.026336219161748886,0.19393034279346466
1790032077238503400,0.23750341796875,0.14365209639072418,0.004788403399288654,0.1412578970193863
1790032077248482600,0.247482666015625,0.038307227194309235,-0.004788403399288654,-0.07182604819536209
1790032077288521700,0.287521728515625,-0.13407529890537262,-0.2585737705230713,0.016759412363171577
1790032077298531300,0.29753125,-0.20350714027881622,0.009576806798577309,-0.05746084079146385
1790032077308541200,0.307541259765625,-0.17956513166427612,0.15322890877723694,0.002394201699644327
1790032077318551000,0.317551025390625,-0.10055647045373917,0.20350714027881622,0.026336219161748886
1790032077328591000,0.327591064453125,0.05985504388809204,0.021547814831137657,0.13168109953403473
1790032077338570500,0.337570556640625,-0.06224924325942993,-0.12689268589019775,0.15562310814857483
1790032077348580400,0.347580322265625,0.031124621629714966,-0.12689268589019775,0.08379705995321274
1790032077358559500,0.3575595703125,0.13407529890537262,-0.014365210197865963,0.08619125932455063
1790032077388619300,0.387619384765625,-0.1628057211637497,0.12689268589019775,0.10295066982507706
1790032077398659600,0.39765966796875,-0.05506663769483566,0.07900865375995636,0.047884032130241394
1790032077408669400,0.40766943359375,-0.023942016065120697,-0.08379705995321274,0.05506663769483566
1790032077428689000,0.42768896484375,0.06703764945268631,-0.10773907601833344,0.016759412363171577
1790032077438698800,0.43769873046875,-0.05027823522686958,0.033518824726343155,0.014365210197865963
1790032077448708400,0.447708251953125,-0.06464344263076782,0.1843535304069519,0.05506663769483566
1790032077458748700,0.457748779296875,0.040701430290937424,0.17956513166427612,0.10773907601833344
1790032077478768000,0.47776806640625,-0.05506663769483566,-0.16519992053508759,-0.004788403399288654
1790032077488778000,0.487778076171875,-0.038307227194309235,-0.17717093229293823,0.07900865375995636
1790032077498787800,0.497787841796875,0,0.0694318488240242,0.033518824726343155
1790032077508797400,0.50779736328125,-0.05027823522686958,0.22026655077934265,0.05027823522686958
1790032077518807300,0.517807373046875,-0.08858546614646912,0.16759411990642548,0.026336219161748886
1790032077528847600,0.52784765625,-0.10534487664699554,-0.1843535304069519,0.08619125932455063
1790032077548897500,0.5478974609375,0.014365210197865963,0.004788403399288654,0.05985504388809204
1790032077558907400,0.557907470703125,-0.021547814831137657,-0.0454898327589035,0.004788403399288654
1790032077568886500,0.567886474609375,-0.06464344263076782,-0.019153613597154617,0.14604631066322327
1790032077598946600,0.597946533203125,-0.016759412363171577,-0.002394201699644327,0.047884032130241394
1790032077608956200,0.6079560546875,-0.08379705995321274,0.004788403399288654,0.0933738648891449
1790032077618935600,0.617935546875,-0.043095629662275314,0.014365210197865963,0.19393034279346466
1790032077628975600,0.6279755859375,0.07900865375995636,-0.1149216815829277,0.17477671802043915
1790032077639046700,0.638046630859375,-0.021547814831137657,-0.05027823522686958,0.031124621629714966
1790032077649056300,0.64805615234375,-0.05267243832349777,-0.09576806426048279,-0.0933738648891449
1790032077659066000,0.658066162109375,-0.10055647045373917,-0.10534487664699554,0.08379705995321274
1790032077669076000,0.668075927734375,0.05746084079146385,-0.047884032130241394,0.023942016065120697
1790032077679116000,0.678115966796875,-0.014365210197865963,-0.07661445438861847,-0.05027823522686958
1790032077689095400,0.688095458984375,-0.031124621629714966,0.038307227194309235,0.12210428714752197
1790032077699135700,0.6981357421875,-0.047884032130241394,0.14365209639072418,0.2561795711517334
1790032077719155200,0.7181552734375,-0.038307227194309235,0.011971008032560349,0.10534487664699554
1790032077729165000,0.7281650390625,-0.047884032130241394,-0.06464344263076782,0.06703764945268631
1790032077739144200,0.738144287109375,-0.06224924325942993,0.05746084079146385,0.11013327538967133
1790032077749215000,0.748215087890625,-0.06224924325942993,0.1149216815829277,0.06224924325942993
1790032077759224800,0.758224853515625,-0.14365209639072418,-0.0071826050989329815,-0.05746084079146385
1790032077769234400,0.768234375,-0.19393034279346466,-0.08140286058187485,0.043095629662275314
1790032077779244300,0.778244384765625,-0.18914192914962769,-0.0454898327589035,0.05746084079146385
1790032077789254100,0.788254150390625,-0.15083470940589905,0.004788403399288654,0.15562310814857483
1790032077819314000,0.81831396484375,0.040701430290937424,-0.15562310814857483,0.07661445438861847
1790032077839333400,0.83833349609375,-0.011971008032560349,0,-0.11252748221158981
1790032077849312800,0.848312744140625,-0.06224924325942993,-0.033518824726343155,0.021547814831137657
1790032077859352800,0.858352783203125,-0.05506663769483566,0.031124621629714966,0.0454898327589035
1790032077869362700,0.86836279296875,-0.040701430290937424,-0.15801730751991272,-0.004788403399288654
1790032077879372500,0.87837255859375,-0.12689268589019775,-0.07182604819536209,-0.07661445438861847
1790032077889382100,0.888382080078125,-0.1388636976480484,-0.05506663769483566,0.05267243832349777
1790032077909371100,0.90837109375,-0.090979665517807,0.05027823522686958,-0.023942016065120697
1790032077919411500,0.918411376953125,-0.043095629662275314,0.031124621629714966,0.035913024097681046
1790032077929421300,0.92842138671875,0.028730420395731926,-0.05267243832349777,0.06703764945268631
1790032077939461600,0.938461669921875,0.05027823522686958,-0.026336219161748886,0.10295066982507706
1790032077959481000,0.958481201171875,-0.16519992053508759,0.023942016065120697,-0.035913024097681046
1790032077969491000,0.968490966796875,-0.1173158809542656,-0.05506663769483566,-0.05746084079146385
1790032077979531300,0.97853125,-0.16759411990642548,0,-0.1173158809542656
1790032077989540900,0.988540771484375,-0.0694318488240242,-0.08140286058187485,-0.05985504388809204
1790032078019539700,1.018539794921875,0.08379705995321274,0.11971008777618408,0.08858546614646912
1790032078029580000,1.028580078125,0.038307227194309235,0.004788403399288654,0.031124621629714966
1790032078039620400,1.038620361328125,-0.021547814831137657,0.021547814831137657,0.05267243832349777
1790032078049630000,1.0486298828125,0.011971008032560349,0.0071826050989329815,0.10773907601833344
1790032078059639800,1.058639892578125,0.031124621629714966,0.002394201699644327,0.090979665517807
1790032078069649700,1.068649658203125,-0.10534487664699554,0.0933738648891449,0.14365209639072418
1790032078079659300,1.0786591796875,-0.05506663769483566,0.06703764945268631,0.15322890877723694
1790032078089638700,1.088638671875,-0.1843535304069519,0.07661445438861847,0.1867477297782898
1790032078099648300,1.098648193359375,-0.19871874153614044,0.05267243832349777,0.12689268589019775
1790032078109658000,1.108658203125,-0.16519992053508759,0.05746084079146385,0.090979665517807
1790032078119668000,1.11866796875,-0.002394201699644327,-0.12210428714752197,0.2059013396501541
1790032078129647000,1.128647216796875,-0.014365210197865963,-0.05027823522686958,0.09816227108240128
1790032078139657000,1.138656982421875,-0.016759412363171577,0.08140286058187485,0.12689268589019775
1790032078149666600,1.14866650390625,0.05506663769483566,-0.040701430290937424,0.004788403399288654
1790032078169686300,1.168686279296875,0.08858546614646912,-0.047884032130241394,0.0694318488240242
1790032078179695900,1.17869580078125,-0.05506663769483566,0.10773907601833344,0.040701430290937424
1790032078189705700,1.188705810546875,-0.14844051003456116,0.043095629662275314,0.10534487664699554
1790032078199715600,1.198715576171875,-0.06464344263076782,-0.028730420395731926,0.038307227194309235
1790032078209725200,1.20872509765625,-0.026336219161748886,-0.07900865375995636,0.0071826050989329815
1790032078239754500,1.23875439453125,0.002394201699644327,0.014365210197865963,0
1790032078249794800,1.248794921875,-0.0933738648891449,-0.047884032130241394,-0.043095629662275314
1790032078259804700,1.2588046875,-0.031124621629714966,-0.10055647045373917,0.0933738648891449
1790032078269783800,1.26878369140625,-0.023942016065120697,-0.12210428714752197,0.07661445438861847
1790032078279824100,1.27882421875,0.011971008032560349,-0.090979665517807,0.12928688526153564
1790032078289864400,1.288864501953125,0.023942016065120697,0.028730420395731926,0.10534487664699554
1790032078299843600,1.298843505859375,-0.019153613597154617,-0.016759412363171577,0.0454898327589035
1790032078339943700,1.338943603515625,-0.0694318488240242,-0.05746084079146385,0.08379705995321274
1790032078349923000,1.348923095703125,-0.05985504388809204,0.06224924325942993,0.05027823522686958
1790032078369973000,1.368972900390625,-0.10055647045373917,-0.090979665517807,0.028730420395731926
1790032078390053600,1.3890537109375,0.08140286058187485,-0.05985504388809204,0.14844051003456116
1790032078400032800,1.39903271484375,-0.05267243832349777,-0.07422025501728058,0.15083470940589905
1790032078410073000,1.409072998046875,0.040701430290937424,-0.10773907601833344,0.10295066982507706
1790032078420113400,1.419113525390625,-0.021547814831137657,0.0071826050989329815,0.17956513166427612
1790032078430153700,1.42915380859375,0.07422025501728058,0.019153613597154617,0.14604631066322327
1790032078440194000,1.439194091796875,0.021547814831137657,-0.08379705995321274,0.011971008032560349
1790032078450203600,1.44920361328125,-0.12449848651885986,-0.12449848651885986,0.07661445438861847
1790032078460213500,1.459213623046875,-0.17956513166427612,-0.11252748221158981,0.12210428714752197
1790032078470223400,1.469223388671875,-0.19153612852096558,0.12689268589019775,0.090979665517807
1790032078480233000,1.47923291015625,-0.0454898327589035,0.0933738648891449,0.19393034279346466
1790032078490242800,1.489242919921875,0.06464344263076782,-0.09576806426048279,0.13168109953403473
1790032078500222200,1.49922216796875,-0.06703764945268631,-0.07661445438861847,0.08379705995321274
1790032078510231800,1.509231689453125,-0.033518824726343155,0.019153613597154617,0.047884032130241394
1790032078540322300,1.539322265625,-0.08140286058187485,-0.07182604819536209,0.033518824726343155
1790032078550332000,1.549331787109375,-0.07422025501728058,-0.11252748221158981,0.181959331035614
1790032078560372200,1.559372314453125,-0.090979665517807,-0.090979665517807,0.15322890877723694
1790032078570382000,1.569382080078125,0.05267243832349777,0.009576806798577309,0.05985504388809204
1790032078580361200,1.579361328125,0.0694318488240242,0.033518824726343155,0.021547814831137657
1790032078590401500,1.589401611328125,0.0454898327589035,0.1867477297782898,0.08379705995321274
1790032078600411400,1.599411376953125,0.014365210197865963,-0.0071826050989329815,0.05746084079146385
1790032078610421000,1.6094208984375,-0.038307227194309235,-0.1388636976480484,0.016759412363171577
1790032078620461300,1.61946142578125,-0.14365209639072418,-0.08140286058187485,0.035913024097681046
1790032078630440700,1.629440673828125,-0.19393034279346466,0.05985504388809204,0.019153613597154617
1790032078660531000,1.659531005859375,-0.10055647045373917,0.035913024097681046,0.12210428714752197
1790032078670540800,1.669540771484375,-0.11013327538967133,-0.10773907601833344,0.035913024097681046
1790032078680520000,1.67952001953125,-0.11971008777618408,-0.0071826050989329815,0.021547814831137657
1790032078690560300,1.689560302734375,-0.08140286058187485,0.016759412363171577,0.07900865375995636
1790032078700569900,1.69956982421875,0.019153613597154617,0.002394201699644327,0.17956513166427612
1790032078710579700,1.709579833984375,-0.021547814831137657,0.031124621629714966,0.15562310814857483
1790032078720589600,1.719589599609375,-0.05267243832349777,-0.043095629662275314,0.06224924325942993
1790032078730599200,1.72959912109375,-0.07900865375995636,-0.028730420395731926,0.040701430290937424
1790032078760689700,1.759689697265625,-0.23942017555236816,-0.13407529890537262,0.0694318488240242
1790032078780709000,1.779709228515625,-0.1604115068912506,0.035913024097681046,0.004788403399288654
1790032078790719000,1.789718994140625,-0.011971008032560349,0.05746084079146385,0.06464344263076782
1790032078800728600,1.799728515625,-0.004788403399288654,-0.014365210197865963,0.13168109953403473
1790032078810708000,1.8097080078125,-0.028730420395731926,-0.023942016065120697,0.07182604819536209
1790032078820717600,1.819717529296875,-0.05985504388809204,0.05506663769483566,0.11252748221158981
1790032078830758000,1.8297578125,-0.08858546614646912,0.06703764945268631,0.0071826050989329815
1790032078860848400,1.859848388671875,-0.20350714027881622,0.047884032130241394,0.08379705995321274
1790032078870858000,1.86985791015625,-0.09576806426048279,-0.11971008777618408,0.07182604819536209
1790032078880867800,1.879867919921875,-0.043095629662275314,0.026336219161748886,0.0454898327589035
1790032078890877700,1.889877685546875,-0.023942016065120697,0.07900865375995636,0.1604115068912506
1790032078900917800,1.899917724609375,0.12449848651885986,0.11252748221158981,0.043095629662275314
1790032078910927600,1.909927734375,0.06703764945268631,-0.021547814831137657,0.09576806426048279
1790032078920937500,1.9199375,0.05506663769483566,-0.023942016065120697,0.021547814831137657
1790032078930916600,1.92991650390625,-0.028730420395731926,0.2082955539226532,0.14844051003456116
1790032078961007000,1.960007080078125,-0.07422025501728058,-0.038307227194309235,0.13168109953403473
1790032078971016700,1.9700166015625,-0.040701430290937424,0.009576806798577309,0.15322890877723694
1790032078980996000,1.97999609375,-0.05267243832349777,0.07182604819536209,0.009576806798577309
1790032078991036400,1.990036376953125,-0.05985504388809204,0.10295066982507706,0.09816227108240128
1790032079001015600,2.000015625,0.014365210197865963,-0.021547814831137657,0.18914192914962769
1790032079011055900,2.010055908203125,0.13407529890537262,0.10295066982507706,0.2537853717803955
1790032079021035000,2.020034912109375,-0.08619125932455063,-0.026336219161748886,-0.07661445438861847
1790032079031014400,2.030014404296875,-0.07182604819536209,-0.12449848651885986,0.0694318488240242
1790032079041054700,2.0400546875,-0.016759412363171577,-0.18914192914962769,0.12928688526153564
1790032079051064300,2.050064208984375,-0.16759411990642548,-0.047884032130241394,0.14844051003456116
1790032079081063200,2.080063232421875,-0.05027823522686958,-0.1412578970193863,0.17956513166427612
1790032079091073000,2.090072998046875,-0.028730420395731926,-0.15083470940589905,0.14365209639072418
1790032079101082600,2.10008251953125,-0.016759412363171577,0.1364694982767105,0.21547815203666687
1790032079111092500,2.110092529296875,0.06464344263076782,0.07182604819536209,0.19153612852096558
1790032079121102300,2.120102294921875,0.08858546614646912,-0.13407529890537262,0.06703764945268631
1790032079131112000,2.13011181640625,-0.0454898327589035,-0.12689268589019775,0.05506663769483566
1790032079141121800,2.140121826171875,-0.05985504388809204,0.019153613597154617,0.17956513166427612
1790032079151131400,2.15013134765625,-0.15322890877723694,-0.002394201699644327,0.009576806798577309
1790032079161141200,2.160141357421875,-0.06703764945268631,-0.023942016065120697,-0.06464344263076782
1790032079181130200,2.180130126953125,-0.17477671802043915,0.05267243832349777,0.12210428714752197
1790032079191140000,2.19014013671875,-0.033518824726343155,-0.0071826050989329815,0.12210428714752197
1790032079201149700,2.200149658203125,0.023942016065120697,-0.06464344263076782,0.05506663769483566
1790032079211159600,2.21015966796875,0.1412578970193863,0.023942016065120697,0.023942016065120697
1790032079221169400,2.22016943359375,0.14604631066322327,0.08619125932455063,0.11971008777618408
1790032079231179000,2.230178955078125,0.019153613597154617,0.06464344263076782,-0.033518824726343155
1790032079241219300,2.24021923828125,-0.043095629662275314,0.05506663769483566,0.038307227194309235
1790032079251229200,2.250229248046875,-0.09576806426048279,-0.05027823522686958,-0.002394201699644327
1790032079261239000,2.260239013671875,-0.1843535304069519,-0.016759412363171577,0.019153613597154617
1790032079271248600,2.27024853515625,-0.12689268589019775,0.0454898327589035,0.08379705995321274
1790032079291268400,2.290268310546875,-0.08140286058187485,0.021547814831137657,0.011971008032560349
1790032079301278000,2.30027783203125,-0.043095629662275314,0.009576806798577309,0.0071826050989329815
1790032079311287800,2.310287841796875,-0.014365210197865963,-0.028730420395731926,0.0694318488240242
1790032079321297400,2.32029736328125,-0.07900865375995636,0.035913024097681046,-0.004788403399288654
1790032079331276800,2.33027685546875,-0.2801215946674347,0.07182604819536209,0.05027823522686958
1790032079361367000,2.360366943359375,-0.019153613597154617,-0.0454898327589035,0.06464344263076782
1790032079371377000,2.370376953125,0.2059013396501541,0.009576806798577309,0.19153612852096558
1790032079381417200,2.380417236328125,0.3926490843296051,-0.0071826050989329815,0.1843535304069519
1790032079391426800,2.3904267578125,0.5841852426528931,-0.0071826050989329815,0.1173158809542656
1790032079401436700,2.400436767578125,0.6320692300796509,0.014365210197865963,0.14844051003456116
1790032079411446500,2.410446533203125,0.19393034279346466,0.3758896589279175,0.031124621629714966
1790032079421425700,2.42042578125,0.49799394607543945,0.49799394607543945,-0.17956513166427612
1790032079441506300,2.44050634765625,1.359906554222107,0.12689268589019775,-0.8259995579719543
1790032079451485400,2.4504853515625,1.6927006244659424,-0.10055647045373917,-0.6751648783683777
1790032079461525800,2.46052587890625,2.580949544906616,-0.24899697303771973,-0.5985504388809204
1790032079481545200,2.480545166015625,3.890577793121338,-0.6751648783683777,-0.5746083855628967
1790032079491555000,2.49055517578125,3.931279182434082,-0.8259995579719543,-0.8595184087753296
1790032079511574500,2.510574462890625,3.646369218826294,-1.4915876388549805,-0.9816226959228516
1790032079521614800,2.52061474609375,3.691859006881714,-1.3431471586227417,-1.0247182846069336
1790032079531624700,2.530624755859375,3.6296098232269287,-1.0749965906143188,-0.8834604024887085
1790032079541634600,2.540634521484375,3.7205893993377686,-1.1324573755264282,-0.586579442024231
1790032079551644200,2.55064404296875,3.6846764087677,-1.0821791887283325,-0.569819986820221
1790032079561654000,2.560654052734375,3.6296098232269287,-1.0103530883789062,-0.6177040338516235
1790032079571663600,2.57066357421875,3.3734302520751953,-1.0438719987869263,-0.8475474119186401
1790032079581704000,2.580703857421875,3.5434184074401855,-1.0319008827209473,-0.8786720037460327
1790032079591683300,2.590683349609375,3.7636849880218506,-1.0414776802062988,-1.0438719987869263
1790032079601693000,2.60069287109375,4.345476150512695,-0.9696516990661621,-0.9696516990661621
1790032079691842000,2.690842041015625,3.691859006881714,-0.993593692779541,-2.5282769203186035
1790032079701882000,2.700882080078125,3.1316158771514893,-0.8738836050033569,-2.674323320388794
1790032079711892000,2.71089208984375,2.6886885166168213,-0.8020575642585754,-2.8131868839263916
1790032079721932300,2.720932373046875,2.4899697303771973,-1.072602391242981,-3.1435868740081787
1790032079731942100,2.730942138671875,2.6001031398773193,-1.256955862045288,-3.138798475265503
1790032079741982200,2.740982177734375,2.8227639198303223,-1.3934253454208374,-2.918531894683838
1790032079751992000,2.750991943359375,2.4851813316345215,-1.2737152576446533,-2.7940332889556885
1790032079762002000,2.761001953125,2.2146365642547607,-1.048660397529602,-2.7246015071868896
1790032079772042200,2.771042236328125,1.7764976024627686,-1.2282254695892334,-2.7222073078155518
1790032079782051800,2.7810517578125,1.9919757843017578,-1.4628572463989258,-2.5977089405059814
1790032079792031200,2.79103125,0.8140285611152649,-0.9983820915222168,-2.4636335372924805
1790032079822091000,2.821091064453125,0.35913026332855225,-1.7262194156646729,-2.5282769203186035
1790032079832100900,2.831100830078125,-0.1149216815829277,-1.5131354331970215,-2.38462495803833
1790032079852150800,2.85115087890625,-1.1276689767837524,-0.608127236366272,-2.58813214302063
1790032079862160600,2.86116064453125,-0.730231523513794,-0.8762778043746948,-2.451662540435791
1790032079872201000,2.871200927734375,-0.3663128614425659,-1.525106430053711,-2.7892448902130127
1790032079882241000,2.881240966796875,0.08619125932455063,-1.4915876388549805,-2.7222073078155518
1790032079892251000,2.8912509765625,0.047884032130241394,-0.7350199222564697,-2.6599581241607666
1790032079912239900,2.911239990234375,-0.8762778043746948,-0.40222588181495667,-2.736572504043579
1790032079922249700,2.921249755859375,-0.9313444495201111,-0.6607996821403503,-2.7437551021575928
1790032079942299600,2.941299560546875,-1.5083470344543457,-0.7398083209991455,-2.6575639247894287
1790032079952340000,2.951340087890625,-2.1092917919158936,-0.7709329724311829,-2.5977089405059814
1790032079962349800,2.961349853515625,-2.248155355453491,-0.3663128614425659,-2.4899697303771973
1790032079972359400,2.971359375,-2.1380221843719482,-0.6536170840263367,-2.5091233253479004
1790032079982399700,2.981399658203125,-2.561795711517334,-0.608127236366272,-2.1978771686553955
1790032079992379100,2.991379150390625,-2.9448680877685547,-0.395043283700943,-1.8531121015548706
1790032080002419500,3.00141943359375,-2.999934673309326,-0.1604115068912506,-1.8602946996688843
1790032080012429000,3.011428955078125,-2.693476915359497,-0.3423708379268646,-2.0422539710998535
1790032080022439000,3.02143896484375,-2.911349296569824,-0.272938996553421,-1.6903064250946045
1790032080032479200,3.031479248046875,-3.0095114707946777,-0.3663128614425659,-1.4293384552001953
1790032080042519600,3.04151953125,-2.940079689025879,-0.22505496442317963,-1.173158884048462
1790032080052498700,3.051498779296875,-3.1890766620635986,-0.15801730751991272,-1.05105459690094
1790032080062477800,3.061477783203125,-3.066972494125366,-0.07661445438861847,-1.1851298809051514
1790032080072518100,3.07151806640625,-3.442862033843994,0.395043283700943,-1.3527239561080933
1790032080082558500,3.081558349609375,-3.7253777980804443,0.45010992884635925,-1.2832920551300049
1790032080102578000,3.101577880859375,-3.7852327823638916,0.090979665517807,-1.659181833267212
1790032080112587800,3.111587890625,-4.02465295791626,0.12449848651885986,-1.6065093278884888
1790032080182717200,3.18171728515625,-4.960785865783691,1.9608511924743652,-1.070208191871643
1790032080192727000,3.19172705078125,-4.230554580688477,2.164358377456665,-0.6536170840263367
1790032080202706200,3.2017060546875,-3.955221176147461,2.0470423698425293,-0.5770025849342346
1790032080212685600,3.211685546875,-4.572925090789795,2.008735179901123,-0.3758896589279175
1790032080232735500,3.231735595703125,-4.6734819412231445,1.5705963373184204,-0.7589619159698486
1790032080242775800,3.24177587890625,-5.171475887298584,1.6376339197158813,-0.912190854549408
1790032080252785700,3.25178564453125,-4.836287498474121,1.6136919260025024,-0.730231523513794
1790032080262764800,3.261764892578125,-4.4939165115356445,1.5514427423477173,-0.6991068720817566
1790032080282815000,3.28181494140625,-4.505887508392334,1.3120225667953491,-0.5051765441894531
1790032080292824600,3.291824462890625,-4.807557106018066,1.0965443849563599,-0.727837324142456
1790032080302834400,3.30183447265625,-4.888959884643555,1.1803414821624756,-0.8236053586006165
1790032080312844000,3.311843994140625,-4.460397720336914,1.0558429956436157,-1.0319008827209473
1790032080322854000,3.32185400390625,-4.314351558685303,1.0462661981582642,-0.9265560507774353
1790032080332863700,3.33186376953125,-4.278438568115234,1.1468225717544556,-0.7876923680305481
1790032080342843000,3.3418427734375,-3.641580820083618,0.8978256583213806,-0.45489832758903503
1790032080352883200,3.35188330078125,-3.359065055847168,0.7613561153411865,-0.4668693244457245
1790032080362893000,3.36189306640625,-3.60566782951355,0.8092401623725891,-0.37828385829925537
1790032080392952800,3.391952880859375,-3.754108190536499,1.0295066833496094,-0.8595184087753296
1790032080402962700,3.401962646484375,-3.3877954483032227,0.6584054827690125,-0.6368576288223267
1790032080412941800,3.41194189453125,-3.2585084438323975,0.22026655077934265,-0.3734954595565796
1790032080422982100,3.421982177734375,-3.3901896476745605,0.26096799969673157,-0.3280056416988373
1790032080432991700,3.43199169921875,-3.339911460876465,0.3878606855869293,-0.3447650372982025
1790032080443001600,3.442001708984375,-3.3423056602478027,0.42377370595932007,-0.790086567401886
1790032080453042000,3.4520419921875,-3.1651346683502197,0.40462008118629456,-0.790086567401886
1790032080463051800,3.4620517578125,-2.5689783096313477,0.19153612852096558,-0.8020575642585754
1790032080473091800,3.472091796875,-2.070984363555908,-0.15562310814857483,-1.0079588890075684
1790032080493111600,3.492111572265625,-1.8387469053268433,-0.5363011956214905,-0.950498104095459
1790032080503121200,3.50212109375,-1.7884687185287476,-0.3495534360408783,-1.1252747774124146
1790032080513131000,3.512131103515625,-1.9919757843017578,-0.011971008032560349,-1.3838485479354858
1790032080523140900,3.522140869140625,-1.8531121015548706,-0.22744916379451752,-1.5514427423477173
1790032080533150500,3.532150390625,-1.7094600200653076,-0.6512228846549988,-1.8267759084701538
1790032080543190800,3.542190673828125,-0.8451532125473022,-1.0773907899856567,-1.8148049116134644
1790032080553200600,3.55220068359375,-0.1867477297782898,-1.0630255937576294,-1.6663644313812256
1790032080563210200,3.562210205078125,-0.6584054827690125,-0.5746083855628967,-1.45806884765625
1790032080573220000,3.57222021484375,-1.1252747774124146,-0.031124621629714966,-1.194706678390503
1790032080583199500,3.582199462890625,-1.1875240802764893,0.004788403399288654,-1.3407529592514038
1790032080633309200,3.63230908203125,-0.11013327538967133,-0.3878606855869293,-1.6304513216018677
1790032080643380000,3.6423798828125,-0.22266076505184174,0.07422025501728058,-0.9002198576927185
1790032080653389800,3.652389892578125,-0.545877993106842,0.13407529890537262,-0.31842881441116333
1790032080663399700,3.662399658203125,-0.3974374830722809,-0.4118026793003082,-0.5889736413955688
1790032080673409300,3.6724091796875,-0.5434837937355042,-0.7086837291717529,-0.7374141216278076
1790032080683388700,3.682388671875,-0.8834604024887085,-0.8068459630012512,-0.8834604024887085
1790032080703438600,3.7024384765625,-1.0079588890075684,-0.5291185975074768,-1.2856862545013428
1790032080723458000,3.7224580078125,-0.17956513166427612,-0.9528923034667969,-0.7206547260284424
1790032080733468000,3.732468017578125,0.38067805767059326,-0.9888052940368652,-0.5937620401382446
1790032080743447300,3.742447265625,0.4908113479614258,-0.8643068075180054,-0.7206547260284424
1790032080753518000,3.75251806640625,0.18914192914962769,-0.5793967843055725,-0.8475474119186401
1790032080763497200,3.762497314453125,-0.629675030708313,-0.181959331035614,-0.8762778043746948
1790032080773507000,3.772507080078125,-1.3934253454208374,0.12928688526153564,-0.8403648138046265
1790032080783547400,3.78254736328125,-1.4077905416488647,-0.5003881454467773,-1.259350061416626
1790032080803566800,3.80256689453125,-0.10534487664699554,-1.3407529592514038,-1.8962076902389526
1790032080813576400,3.812576416015625,0.7230489253997803,-0.8044517636299133,-1.8315643072128296
1790032080833596200,3.83259619140625,-0.40701428055763245,0.11013327538967133,-1.139639973640442
1790032080843636500,3.842636474609375,-0.24181437492370605,-0.363918662071228,-0.993593692779541
1790032080853646000,3.85264599609375,0.15322890877723694,-0.8068459630012512,-1.4437036514282227
1790032080863656000,3.862656005859375,0.09816227108240128,-0.9050082564353943,-1.5179238319396973
1790032080873665800,3.872665771484375,0.019153613597154617,-0.8571242094039917,-1.4724340438842773
1790032080883705900,3.882705810546875,0.4165911078453064,-0.7757213711738586,-1.3958195447921753
1790032080893715700,3.8927158203125,0.9744400978088379,-0.5602431893348694,-1.2737152576446533
1790032080903695000,3.902695068359375,0.49320554733276367,-0.10055647045373917,-1.1444283723831177
1790032080913735200,3.912735107421875,-0.1843535304069519,0,-1.2186486721038818
1790032080923745000,3.9227451171875,-0.9050082564353943,-0.272938996553421,-1.2880805730819702
1790032080933755000,3.9327548828125,-0.9289502501487732,-0.5889736413955688,-1.3670891523361206
1790032080943795200,3.942795166015625,-0.09576806426048279,-1.1204863786697388,-1.3742717504501343
1790032080953835300,3.952835205078125,0.8379706144332886,-0.9313444495201111,-1.3431471586227417
1790032080963845000,3.96284521484375,1.2258312702178955,-0.8738836050033569,-0.8882488012313843
1790032080973855000,3.97285498046875,0.5722141861915588,-0.5961562395095825,-0.49799394607543945
1790032080983895300,3.982895263671875,-0.06464344263076782,-0.507570743560791,-0.4644751250743866
1790032080993874400,3.99287451171875,0.08379705995321274,-0.8571242094039917,-0.9864110946655273
1790032081013924400,4.01292431640625,0.3711012601852417,-0.7015010714530945,-1.5873557329177856
1790032081033944000,4.032944091796875,1.2258312702178955,-0.6775590777397156,-0.9624691009521484
1790032081043953700,4.04295361328125,0.727837324142456,-0.2992752194404602,-0.8475474119186401
1790032081053933000,4.05293310546875,-0.17238251864910126,-0.24181437492370605,-0.6847416758537292
1790032081063973400,4.062973388671875,-0.6631938815116882,-0.44532153010368347,-0.9217676520347595
1790032081073983000,4.07298291015625,-0.0071826050989329815,-0.7350199222564697,-0.9792284965515137
1790032081083992800,4.082992919921875,0.5195417404174805,-0.667982280254364,-1.0055646896362305
1790032081094033200,4.093033203125,0.7110779285430908,-0.6105214357376099,-0.9768342971801758
1790032081124093000,4.123093017578125,-0.09816227108240128,-0.2968810200691223,-0.7158663272857666
1790032081144112400,4.1431123046875,-0.21308395266532898,-0.12449848651885986,-0.9313444495201111
1790032081154152700,4.153152587890625,-0.5889736413955688,-0.11013327538967133,-0.9145850539207458
1790032081164132000,4.163132080078125,-0.3758896589279175,-0.37828385829925537,-0.9193734526634216
1790032081174172200,4.173172119140625,0.047884032130241394,-0.8164227604866028,-0.8188169598579407
1790032081184182000,4.18318212890625,0.22505496442317963,-0.6703764796257019,-0.7230489253997803
1790032081194222300,4.193222412109375,0.5267243981361389,-0.40940847992897034,-0.5889736413955688
1790032081204232200,4.203232177734375,0.49559974670410156,-0.15083470940589905,-0.5267243981361389
1790032081224251600,4.223251708984375,0.18914192914962769,0.27054479718208313,-0.9026140570640564
1790032081234292000,4.2332919921875,-0.21547815203666687,-0.08619125932455063,-0.9648633003234863
1790032081244301600,4.243301513671875,-0.16759411990642548,-0.24899697303771973,-0.8259995579719543
1790032081254281000,4.253281005859375,0.26815059781074524,-0.3734954595565796,-0.7254431247711182
1790032081264321300,4.2633212890625,0.871489405632019,-0.16759411990642548,-1.05105459690094
1790032081284340700,4.2833408203125,-0.1867477297782898,0.6488286852836609,-0.9313444495201111
1790032081294350600,4.2933505859375,-0.47165772318840027,0.47884035110473633,-0.706289529800415
1790032081304329700,4.303329833984375,-0.14844051003456116,0.4572925269603729,-0.5195417404174805
1790032081314370000,4.3133701171875,0.7589619159698486,0.48602294921875,-0.363918662071228
1790032081334359000,4.333359130859375,1.039083480834961,0.4429273009300232,0.3519476354122162
1790032081354409200,4.3534091796875,0.6200982332229614,0.9959878921508789,0.9457096457481384
1790032081364418800,4.363418701171875,0.24660277366638184,0.7565677165985107,0.28969839215278625
1790032081374428700,4.3734287109375,0.43095630407333374,0,-0.6991068720817566
1790032081384438300,4.383438232421875,0.363918662071228,-0.9145850539207458,-1.1683704853057861
1790032081394448100,4.3934482421875,0.28969839215278625,-0.8930372595787048,-1.1109095811843872
1790032081404458000,4.4034580078125,0.35673606395721436,0.031124621629714966,-1.2018892765045166
1790032081434487300,4.4334873046875,0.9241618514060974,0.22744916379451752,-0.5793967843055725
1790032081444497000,4.443496826171875,1.137245774269104,0.004788403399288654,-0.629675030708313
1790032081454506800,4.4535068359375,1.2545616626739502,-0.19153612852096558,-0.8140285611152649
1790032081464516600,4.4635166015625,1.2330138683319092,-0.15801730751991272,-0.8978256583213806
1790032081474495700,4.473495849609375,1.0127472877502441,-0.17238251864910126,-0.9552865028381348
1790032081484536000,4.4835361328125,0.6536170840263367,0.07422025501728058,-0.8786720037460327
1790032081494546000,4.4935458984375,0.7493851184844971,0.35673606395721436,-0.8068459630012512
1790032081504586000,4.5035859375,0.6991068720817566,0.3734954595565796,-0.667982280254364
1790032081514626300,4.513626220703125,0.569819986820221,0.36152446269989014,-0.4405331015586853
1790032081524636200,4.52363623046875,0.730231523513794,0.40940847992897034,-0.272938996553421
1790032081544655600,4.543655517578125,1.1252747774124146,0.17956513166427612,-0.2825157940387726
1790032081554665500,4.55366552734375,0.8571242094039917,0.002394201699644327,-0.3711012601852417
1790032081574685000,4.573684814453125,0.7182605266571045,0.06224924325942993,-0.33758243918418884
1790032081584694800,4.58369482421875,0.7110779285430908,0.18914192914962769,-0.4357447028160095
1790032081594704400,4.593704345703125,0.7589619159698486,0.26815059781074524,-0.35434186458587646
1790032081604683800,4.603683837890625,0.9911994934082031,0.21308395266532898,-0.26336219906806946
1790032081624733700,4.623733642578125,1.5897499322891235,0.22744916379451752,-0.40462008118629456
1790032081634743600,4.63374365234375,1.644816517829895,0.14365209639072418,-0.45489832758903503
1790032081664833800,4.663833740234375,2.3535003662109375,-0.021547814831137657,-0.5889736413955688
1790032081684853500,4.683853515625,2.056619167327881,0.49559974670410156,-0.6607996821403503
1790032081754983000,4.75398291015625,2.762908697128296,-0.19632454216480255,-0.8068459630012512
1790032081795113500,4.794113525390625,3.136404275894165,-0.7422025203704834,-0.6631938815116882
1790032081845223400,4.844223388671875,1.941697597503662,-0.4381389021873474,-1.6855180263519287
1790032081855233000,4.85423291015625,1.9249382019042969,-0.8188169598579407,-1.9033904075622559
1790032081865273300,4.8642734375,2.387019157409668,-1.4173674583435059,-1.764526605606079
1790032081875313700,4.874313720703125,2.0853497982025146,-1.6041151285171509,-1.53707754611969
1790032081885323500,4.884323486328125,2.032677173614502,-1.314416766166687,-1.4053963422775269
1790032081905343000,4.904343017578125,1.9584569931030273,-1.1037269830703735,-1.9033904075622559
1790032081935402800,4.93440283203125,1.525106430053711,-1.2713210582733154,-1.8794482946395874
1790032081945443000,4.944443115234375,1.6855180263519287,-1.2545616626739502,-1.9057846069335938
1790032081955452700,4.95445263671875,1.525106430053711,-1.1803414821624756,-1.8195933103561401
1790032082015511300,5.01451123046875,0.26575639843940735,-1.3766659498214722,-3.378218650817871
1790032082055581000,5.054580810546875,1.4532804489135742,-1.3287819623947144,-2.832340717315674
1790032082065590800,5.0645908203125,1.237802267074585,-1.091755986213684,-2.8371291160583496
1790032082075600400,5.074600341796875,0.9720458984375,-0.7445967197418213,-2.7724854946136475
1790032082085610200,5.0846103515625,0.4381389021873474,-0.5506663918495178,-2.6168625354766846
1790032082095620000,5.0946201171875,-0.47165772318840027,-0.363918662071228,-2.7222073078155518
1790032082105629700,5.104629638671875,-0.5722141861915588,-0.524330198764801,-2.8347349166870117
1790032082115639600,5.1146396484375,-0.4141969084739685,-0.751779317855835,-2.9664158821105957
1790032082125649400,5.1246494140625,-0.3734954595565796,-0.6943184733390808,-2.9233202934265137
1790032082135628500,5.134628662109375,-0.9169792532920837,-0.47644615173339844,-2.7988216876983643
1790032082145638400,5.144638427734375,-1.1444283723831177,-0.5961562395095825,-2.7700912952423096
1790032082175728600,5.174728759765625,-1.1468225717544556,-1.5059528350830078,-2.456450939178467
1790032082185708000,5.1847080078125,-0.3447650372982025,-1.5490485429763794,-2.473210334777832
1790032082195748000,5.194748046875,-0.4381389021873474,-1.2665326595306396,-2.1715409755706787
1790032082215767800,5.214767822265625,-1.5945383310317993,-0.5267243981361389,-1.8052281141281128
1790032082225777400,5.22477734375,-2.070984363555908,-0.7158663272857666,-1.9752163887023926
1790032082235817700,5.234817626953125,-1.7262194156646729,-1.2880805730819702,-1.8267759084701538
1790032082255837400,5.25483740234375,-1.8962076902389526,-1.139639973640442,-2.006340980529785
1790032082265816600,5.264816650390625,-2.164358377456665,-0.8978256583213806,-1.9536685943603516
1790032082275857000,5.27485693359375,-2.2433669567108154,-0.5339069962501526,-2.31758713722229
1790032082285866500,5.284866455078125,-2.293645143508911,-0.24660277366638184,-2.255337953567505
1790032082295876400,5.29487646484375,-2.454056739807129,-0.30885201692581177,-2.0374655723571777
1790032082305886200,5.30488623046875,-2.454056739807129,-0.5267243981361389,-2.0446481704711914
1790032082315926500,5.314926513671875,-2.75812029838562,-0.6177040338516235,-2.1068975925445557
1790032082325936000,5.32493603515625,-2.6647465229034424,-0.4429273009300232,-2.030282974243164
1790032082335946000,5.334946044921875,-2.6001031398773193,-0.3711012601852417,-1.9560627937316895
1790032082345955800,5.344955810546875,-2.497152328491211,-0.3256114423274994,-1.8818424940109253
1790032082355996000,5.354995849609375,-2.937685489654541,-0.12689268589019775,-1.5729905366897583
1790032082366005800,5.365005859375,-3.1004912853240967,-0.11252748221158981,-1.1348515748977661
1790032082376046000,5.375046142578125,-3.6774938106536865,-0.23942017555236816,-1.0558429956436157
1790032082386086400,5.38508642578125,-3.5434184074401855,-0.7805097699165344,-1.0630255937576294
1790032082396096000,5.395095947265625,-4.122815132141113,-0.993593692779541,-1.8363527059555054
1790032082406105900,5.40510595703125,-4.106055736541748,-1.05105459690094,-2.0470423698425293
1790032082416115700,5.41511572265625,-3.847482204437256,-0.5817909836769104,-2.3918075561523438
1790032082426125300,5.425125244140625,-4.680664539337158,-0.13407529890537262,-2.647987127304077
1790032082446145000,5.44514501953125,-4.812345504760742,-0.31364041566848755,-2.6599581241607666
1790032082466164500,5.46516455078125,-4.247313976287842,-0.304063618183136,-2.3750481605529785
1790032082486184000,5.485183837890625,-4.364629745483398,0.21787235140800476,-1.2832920551300049
1790032082506203600,5.50520361328125,-4.663905143737793,1.1875240802764893,-1.0438719987869263
1790032082526192600,5.525192626953125,-4.548983097076416,1.0295066833496094,-1.1300631761550903
1790032082536232700,5.535232666015625,-4.486733913421631,0.8547300100326538,-1.2473790645599365
1790032082546242600,5.54524267578125,-4.687847137451172,0.8403648138046265,-1.2234370708465576
1790032082556252400,5.55525244140625,-5.049371242523193,0.9289502501487732,-1.1516109704971313
1790032082566262000,5.565261962890625,-5.106832027435303,0.9576807022094727,-1.1851298809051514
1790032082576272000,5.57527197265625,-4.745307922363281,0.7757213711738586,-1.139639973640442
1790032082586281700,5.58528173828125,-4.95120906829834,0.5410895943641663,-1.3287819623947144
1790032082596322000,5.595322021484375,-4.501099109649658,0.47644615173339844,-1.6663644313812256
1790032082606331600,5.60533154296875,-4.508281707763672,0.6177040338516235,-1.9536685943603516
1790032082636391400,5.635391357421875,-3.804386615753174,0.42377370595932007,-1.7334020137786865
1790032082666420700,5.665420654296875,-3.0813376903533936,0.038307227194309235,-1.968033790588379
1790032082696450000,5.695449951171875,-2.7269957065582275,0.6512228846549988,-1.5825673341751099
1790032082716469800,5.7154697265625,-3.0358476638793945,0.24899697303771973,-2.1595699787139893
1790032082736519700,5.735519775390625,-2.075772762298584,-0.028730420395731926,-2.3582887649536133
1790032082746529500,5.745529541015625,-1.778891921043396,0.24181437492370605,-2.049436569213867
1790032082756539100,5.7555390625,-0.9026140570640564,0.3711012601852417,-1.7836803197860718
1790032082766549000,5.765549072265625,-1.237802267074585,0.06224924325942993,-1.9632453918457031
1790032082786568400,5.785568359375,-1.6112977266311646,-0.5315127968788147,-2.408566951751709
1790032082796517400,5.795517333984375,-1.3886369466781616,-0.5171475410461426,-2.513911724090576
1790032082806557400,5.805557373046875,-1.4221558570861816,-0.05746084079146385,-2.3367409706115723
1790032082816567300,5.8155673828125,-1.3407529592514038,-0.033518824726343155,-2.2194249629974365
1790032082836648000,5.83564794921875,-0.5770025849342346,-1.3958195447921753,-2.456450939178467
1790032082856667400,5.85566748046875,-1.0199298858642578,-1.0103530883789062,-2.5258827209472656
1790032082866677200,5.86567724609375,-1.0055646896362305,-0.6200982332229614,-2.6024973392486572
1790032082886696700,5.88569677734375,0.0694318488240242,-0.9145850539207458,-2.3032219409942627
1790032082896706600,5.89570654296875,0.4381389021873474,-1.192312479019165,-2.078166961669922
1790032082906716200,5.905716064453125,-0.2322375625371933,-1.2258312702178955,-2.097320795059204
1790032082916726000,5.91572607421875,-0.2585737705230713,-1.2018892765045166,-2.207453966140747
1790032082926736000,5.92573583984375,-1.0127472877502441,-0.7948749661445618,-2.5713725090026855
1790032082936745500,5.935745361328125,-0.569819986820221,-0.5386953949928284,-2.4396915435791016
1790032082946785800,5.945785888671875,0.4381389021873474,-0.8954314589500427,-2.276885747909546
1790032082956795600,5.955795654296875,-0.026336219161748886,-0.7661445140838623,-1.7477672100067139
1790032082966805200,5.96580517578125,0.13168109953403473,-0.8451532125473022,-1.659181833267212
1790032082976815000,5.975815185546875,-0.17717093229293823,-0.9552865028381348,-2.0829553604125977
1790032082986825000,5.985824951171875,-0.6512228846549988,-0.790086567401886,-2.497152328491211
1790032082996834600,5.99583447265625,-0.3280056416988373,-0.5650315880775452,-2.3726539611816406
1790032083006844400,6.005844482421875,0.6416460275650024,-0.5195417404174805,-1.8315643072128296
1790032083016823600,6.015823486328125,0.6871358752250671,-0.8619126081466675,-1.4269442558288574
1790032083026863900,6.02586376953125,0.8619126081466675,-1.2497732639312744,-1.2617442607879639
1790032083036873700,6.035873779296875,1.039083480834961,-1.173158884048462,-1.3192051649093628
1790032083046883600,6.045883544921875,0.42856210470199585,-1.1228805780410767,-1.6927006244659424
1790032083056893200,6.05589306640625,-0.6344634294509888,-0.9888052940368652,-2.209848165512085
1790032083066903000,6.065903076171875,-0.6871358752250671,-0.8236053586006165,-2.382230758666992
1790032083076912600,6.07591259765625,1.2617442607879639,-0.8188169598579407,-2.4181437492370605
1790032083086922500,6.085922607421875,1.3718775510787964,-0.8403648138046265,-1.6280571222305298
1790032083096932400,6.095932373046875,0.6991068720817566,-1.0462661981582642,-0.48602294921875
1790032083116921300,6.11592138671875,-0.44532153010368347,-1.5753847360610962,-1.5083470344543457
1790032083146950700,6.14595068359375,1.2282254695892334,-0.6129156351089478,-1.5849615335464478
1790032083156960300,6.155960205078125,1.3718775510787964,-1.039083480834961,-0.9145850539207458
1790032083166970000,6.16597021484375,0.8188169598579407,-1.359906554222107,-0.6560112833976746
1790032083176980000,6.17597998046875,0.0694318488240242,-1.091755986213684,-0.7876923680305481
1790032083186989600,6.185989501953125,-0.3926490843296051,-0.8523358106613159,-0.9744400978088379
1790032083196999400,6.19599951171875,-0.6200982332229614,-0.7589619159698486,-1.0869675874710083
1790032083277108000,6.27610791015625,0.3878606855869293,-1.436521053314209,-1.3910311460494995
1790032083297066500,6.29606640625,0.4165911078453064,0.24181437492370605,-0.5123591423034668
1790032083357094700,6.3560947265625,0.4405331015586853,-0.6033388376235962,-0.7445967197418213
1790032083437172700,6.4361728515625,-0.040701430290937424,-0.3687070608139038,-1.216254472732544
1790032083527230200,6.526230224609375,-0.15083470940589905,0.09576806426048279,-1.161187767982483
1790032083537239800,6.53623974609375,-0.2825157940387726,0.21308395266532898,-0.8307880163192749
1790032083547280100,6.546280029296875,-0.016759412363171577,-0.26336219906806946,-0.7110779285430908
1790032083557259500,6.556259521484375,0.3208230137825012,-0.524330198764801,-0.8379706144332886
1790032083577279000,6.576279052734375,0.27054479718208313,-0.14604631066322327,-0.7469909191131592
1790032083587258000,6.586258056640625,0.363918662071228,-0.14365209639072418,-0.6967126727104187
1790032083607308300,6.606308349609375,-0.20350714027881622,-0.10534487664699554,-0.6392518281936646
1790032083617318100,6.616318115234375,-0.08379705995321274,-0.15083470940589905,-0.545877993106842
1790032083627327700,6.62632763671875,-0.18914192914962769,-0.0933738648891449,-0.689530074596405
1790032083637307100,6.63630712890625,0.08619125932455063,-0.2346317619085312,-0.6320692300796509
1790032083647347200,6.64634716796875,0.23942017555236816,-0.2059013396501541,-0.49559974670410156
1790032083657357000,6.656357177734375,0.1364694982767105,0.031124621629714966,-0.26815059781074524
1790032083667367000,6.666366943359375,0.3232172429561615,-0.08619125932455063,0.031124621629714966
1790032083677376500,6.67637646484375,0.45250412821769714,-0.2082955539226532,-0.08379705995321274
1790032083687386400,6.686386474609375,0.35673606395721436,-0.4141969084739685,-0.3208230137825012
1790032083697396200,6.696396240234375,0.13407529890537262,-0.44532153010368347,-0.11013327538967133
1790032083707436500,6.7064365234375,0.4668693244457245,-0.3734954595565796,0.026336219161748886
1790032083727456000,6.7264560546875,0.43335050344467163,-0.07661445438861847,-0.16519992053508759
1790032083737465900,6.7364658203125,0.36152446269989014,-0.031124621629714966,-0.6799532771110535
1790032083747475500,6.746475341796875,0.15322890877723694,-0.07661445438861847,-0.8834604024887085
1790032083757546200,6.756546142578125,-0.26815059781074524,0.023942016065120697,-0.912190854549408
1790032083837685500,6.836685546875,0.43335050344467163,0.22505496442317963,-0.43335050344467163
1790032083857705000,6.856705078125,0.10773907601833344,0.4381389021873474,-0.33997663855552673
1790032083867745300,6.866745361328125,0.11013327538967133,0.22744916379451752,-0.2968810200691223
1790032083887795200,6.886795166015625,0.17956513166427612,0.3016694188117981,-0.3758896589279175
1790032083917916200,6.916916259765625,0.31364041566848755,0.8259995579719543,-0.5027823448181152
1790032083927926000,6.926926025390625,0.5195417404174805,0.36152446269989014,-0.6727706789970398
1790032083977974800,6.976974853515625,2.2697031497955322,0.6105214357376099,-0.42377370595932007
1790032083987954000,6.986953857421875,1.7932571172714233,0.44771572947502136,-0.33997663855552673
1790032083997994200,6.996994140625,1.5634137392044067,0.3758896589279175,-0.38546648621559143
1790032084008004000,7.007004150390625,1.7070658206939697,0.2585737705230713,-0.6105214357376099
1790032084018014000,7.017013916015625,1.7836803197860718,0.47644615173339844,-0.8619126081466675
1790032084028054000,7.027053955078125,2.456450939178467,0.7254431247711182,-0.9672574996948242
1790032084038063900,7.03706396484375,2.343923568725586,0.912190854549408,-0.9648633003234863
1790032084048043000,7.04704296875,2.4372973442077637,0.8523358106613159,-0.9050082564353943
1790032084058083300,7.057083251953125,2.473210334777832,0.5291185975074768,-0.9528923034667969
1790032084068093200,7.06709326171875,2.3271639347076416,0.4165911078453064,-0.7613561153411865
1790032084078103000,7.07710302734375,2.5905263423919678,0.043095629662275314,-0.768538773059845
1790032084088112600,7.087112548828125,2.676717519760132,-0.16519992053508759,-0.8978256583213806
1790032084098122500,7.09712255859375,3.1483752727508545,-0.19871874153614044,-1.0007762908935547
1790032084128151800,7.12715185546875,2.87064790725708,0.20350714027881622,-1.37906014919281
1790032084148201700,7.14720166015625,2.7126305103302,-0.4572925269603729,-1.2641384601593018
1790032084158181000,7.15718115234375,2.3032219409942627,-0.47884035110473633,-1.522712230682373
1790032084188241000,7.187240966796875,4.314351558685303,-0.47405192255973816,-1.0007762908935547
1790032084198281200,7.19728125,3.3686418533325195,-0.9409212470054626,-0.9911994934082031
1790032084248360400,7.2473603515625,1.946485996246338,-0.7757213711738586,-2.2361843585968018
1790032084288399600,7.287399658203125,2.655169725418091,-1.3742717504501343,-2.762908697128296
1790032084298409200,7.2974091796875,2.1954829692840576,-1.4197616577148438,-3.0550012588500977
1790032084308449500,7.307449462890625,1.4484920501708984,-1.2473790645599365,-3.1220390796661377
1790032084338478800,7.337478759765625,1.1324573755264282,-1.5322890281677246,-2.9544448852539062
1790032084348519200,7.347519287109375,0.811634361743927,-1.6328455209732056,-2.9903578758239746
1790032084358529000,7.357529052734375,0.6320692300796509,-1.5490485429763794,-3.272873640060425
1790032084368508200,7.367508056640625,0.4644751250743866,-1.2641384601593018,-3.3207578659057617
1790032084378548500,7.377548583984375,-0.33758243918418884,-1.3551181554794312,-3.2417490482330322
1790032084388558300,7.387558349609375,-0.8188169598579407,-1.3982137441635132,-3.134010076522827
1790032084398568000,7.39756787109375,-0.3280056416988373,-1.7310078144073486,-3.2178070545196533
1790032084408608300,7.407608154296875,-0.47884035110473633,-1.6089035272598267,-3.1028854846954346
1790032084418587600,7.417587646484375,-0.6775590777397156,-1.558625340461731,-2.896984100341797
1790032084438668000,7.43766796875,-0.7972691655158997,-1.8195933103561401,-3.2297780513763428
1790032084458718200,7.45771826171875,-1.3934253454208374,-1.6543933153152466,-3.397372245788574
1790032084468728000,7.46772802734375,-1.8483237028121948,-1.479616641998291,-3.399766445159912
1790032084478737700,7.477737548828125,-2.274491548538208,-1.5634137392044067,-3.1483752727508545
1790032084488747500,7.48774755859375,-1.6639702320098877,-1.9560627937316895,-2.851494312286377
1790032084498757000,7.497757080078125,-1.290474772453308,-2.0159177780151367,-2.7700912952423096
1790032084508767000,7.50776708984375,-1.9081788063049316,-1.7142484188079834,-2.6360161304473877
1790032084558846500,7.557846435546875,-2.207453966140747,-1.2066776752471924,-2.121262788772583
1790032084568856000,7.56785595703125,-3.1914708614349365,-1.0558429956436157,-2.1763293743133545
1790032084578866000,7.577865966796875,-3.450044631958008,-1.213860273361206,-2.2649147510528564
1790032084588875500,7.58787548828125,-2.7078421115875244,-1.4700398445129395,-2.5258827209472656
1790032084598855000,7.59785498046875,-2.4157495498657227,-1.0342950820922852,-2.63362193107605
1790032084608895200,7.607895263671875,-2.892195701599121,-0.8355764150619507,-2.5330653190612793
1790032084618874400,7.617874267578125,-2.4875755310058594,-1.139639973640442,-2.3032219409942627
1790032084638924500,7.637924560546875,-2.75812029838562,-0.9457096457481384,-2.4205379486083984
1790032084648934100,7.64793408203125,-3.2992098331451416,-0.8882488012313843,-2.8419175148010254
1790032084658944000,7.657944091796875,-3.7038300037384033,-0.9361328482627869,-2.6001031398773193
1790032084668984300,7.667984375,-3.995922565460205,-0.9888052940368652,-2.0901381969451904
1790032084678994200,7.677994140625,-3.361459255218506,-1.2114660739898682,-1.821987509727478
1790032084699044000,7.698044189453125,-2.8347349166870117,-1.4269442558288574,-2.1547815799713135
1790032084739083300,7.738083251953125,-5.078101634979248,0.2082955539226532,-1.745373010635376
1790032084769112600,7.768112548828125,-4.592078685760498,-0.21787235140800476,-1.1779472827911377
1790032084779122200,7.7781220703125,-4.8482584953308105,0.1604115068912506,-0.9888052940368652
1790032084789162500,7.78816259765625,-5.003881454467773,0.2801215946674347,-0.6416460275650024
1790032084799142000,7.798141845703125,-4.709394931793213,0.40701428055763245,-0.5722141861915588
1790032084809182000,7.808181884765625,-4.8482584953308105,0.363918662071228,-0.7326257228851318
1790032084819161300,7.818161376953125,-5.214571475982666,0.22026655077934265,-0.7206547260284424
1790032084829201700,7.82820166015625,-5.178658485412598,0.31364041566848755,-0.9744400978088379
1790032084839211300,7.838211181640625,-4.924872875213623,0.30885201692581177,-1.45806884765625
1790032084849221000,7.84822119140625,-4.9152960777282715,-0.08379705995321274,-1.558625340461731
1790032084869210000,7.868210205078125,-4.271255970001221,-0.2825157940387726,-1.5538369417190552
1790032084889260300,7.88826025390625,-3.952826976776123,-0.16998831927776337,-1.4676456451416016
1790032084899270000,7.898269775390625,-3.9264907836914062,-0.090979665517807,-1.5969325304031372
1790032084909279700,7.90827978515625,-3.6391866207122803,-0.33997663855552673,-1.702277421951294
1790032084919259000,7.9182587890625,-3.090914487838745,-0.24181437492370605,-1.9153614044189453
1790032084929268700,7.928268798828125,-3.066972494125366,-0.19393034279346466,-1.6280571222305298
1790032084939247900,7.938247802734375,-3.485957622528076,0.016759412363171577,-1.577778935432434
1790032084949318700,7.948318603515625,-3.957615375518799,0.011971008032560349,-1.824381709098816
1790032084969368800,7.968368896484375,-2.5713725090026855,-0.5602431893348694,-2.1763293743133545
1790032084979378700,7.978378662109375,-2.4013843536376953,-0.8259995579719543,-1.9943699836730957
1790032084989418800,7.988418701171875,-1.7597382068634033,-0.811634361743927,-1.6974890232086182
1790032084999428600,7.9984287109375,-1.5705963373184204,-0.6057330369949341,-1.5298948287963867
1790032085009438500,8.0084384765625,-1.7717092037200928,-0.5386953949928284,-1.599326729774475
1790032085019448000,8.018447998046875,-2.0183119773864746,-0.6727706789970398,-1.5658079385757446
1790032085029488400,8.02848828125,-1.7812861204147339,-0.7637503147125244,-1.6328455209732056
1790032085039498200,8.038498291015625,-1.381454348564148,-0.8906430602073669,-1.9488801956176758
1790032085049508000,8.048508056640625,-1.1492167711257935,-1.161187767982483,-2.1811177730560303
1790032085059487200,8.0584873046875,-1.048660397529602,-1.2306196689605713,-2.161964178085327
1790032085069558000,8.06855810546875,-0.8212111592292786,-0.9050082564353943,-1.889025092124939
1790032085079568000,8.07856787109375,-0.5746083855628967,-0.9720458984375,-1.644816517829895
1790032085109658000,8.108658203125,-1.3479355573654175,-1.0462661981582642,-2.0183119773864746
1790032085119668000,8.11866796875,-0.7924807667732239,-1.0462661981582642,-2.140416383743286
1790032085129677600,8.128677490234375,-0.730231523513794,-0.9145850539207458,-2.190694570541382
1790032085159737300,8.1587373046875,-0.3758896589279175,-0.8978256583213806,-2.094926595687866
1790032085219857200,8.218857177734375,-0.5626373887062073,-0.993593692779541,-2.52109432220459
1790032085229836300,8.228836181640625,0.1604115068912506,-0.6943184733390808,-2.346317768096924
1790032085289895000,8.28889501953125,0.689530074596405,-1.3910311460494995,-2.1571757793426514
1790032085299935200,8.298935302734375,1.1683704853057861,-0.9217676520347595,-1.8914192914962769
1790032085319954700,8.31895458984375,-0.4213795065879822,-1.1085153818130493,-0.3926490843296051
1790032085329964500,8.328964599609375,0.10773907601833344,-1.5059528350830078,-0.8427590131759644
1790032085339974400,8.338974365234375,0.4812345504760742,-1.3958195447921753,-1.2330138683319092
1790032085349984000,8.34898388671875,1.256955862045288,-1.3862427473068237,-1.1875240802764893
1790032085359993900,8.358993896484375,2.0183119773864746,-1.4197616577148438,-1.2952631711959839
1790032085380013300,8.379013427734375,0.1388636976480484,-0.646434485912323,-0.9026140570640564
1790032085480202500,8.479202392578125,0.9576807022094727,-1.4963760375976562,-1.3000515699386597
1790032085500222200,8.49922216796875,0.2082955539226532,-0.31124621629714966,-1.072602391242981
1790032085510262300,8.50926220703125,-0.07900865375995636,0.15083470940589905,-0.7661445140838623
1790032085570351400,8.569351318359375,0.1173158809542656,-0.5674257874488831,-0.9217676520347595
1790032085610421000,8.6094208984375,-0.23942017555236816,-0.3256114423274994,-1.0893617868423462
1790032085660439300,8.659439208984375,-0.2059013396501541,-0.26575639843940735,-0.6129156351089478
1790032085700539400,8.699539306640625,0.40462008118629456,-0.28969839215278625,-0.9433154463768005
1790032085710518800,8.709518798828125,0.31842881441116333,-0.14844051003456116,-0.8427590131759644
1790032085730568700,8.729568603515625,-0.272938996553421,-0.17238251864910126,-0.9552865028381348
1790032085760598000,8.759597900390625,-0.3878606855869293,-0.40462008118629456,-0.6799532771110535
1790032085790627300,8.78962744140625,0.44532153010368347,-0.2561795711517334,-0.5291185975074768
1790032085800637200,8.79963720703125,0.31364041566848755,-0.33518823981285095,-0.629675030708313
1790032085820687000,8.81968701171875,-0.10055647045373917,0.1173158809542656,-0.40222588181495667
1790032085840706800,8.839706787109375,-0.3687070608139038,-0.42377370595932007,-0.7709329724311829
1790032085850716400,8.84971630859375,-0.43335050344467163,-0.31364041566848755,-0.8044517636299133
1790032085860726300,8.859726318359375,-0.009576806798577309,-0.35673606395721436,-0.7374141216278076
1790032085870766600,8.8697666015625,0.40222588181495667,-0.2585737705230713,-0.608127236366272
1790032085880776200,8.879776123046875,0.3734954595565796,-0.16998831927776337,-0.5889736413955688
1790032085890786000,8.8897861328125,0.3974374830722809,-0.2106897532939911,-0.4213795065879822
1790032085910836200,8.909836181640625,0.608127236366272,-0.44532153010368347,-0.2585737705230713
1790032085920845800,8.919845703125,0.5291185975074768,-0.3974374830722809,-0.4165911078453064
1790032085930855700,8.929855712890625,0.4668693244457245,-0.44771572947502136,-0.5578489899635315
1790032085950875100,8.949875244140625,-0.0454898327589035,-0.3064578175544739,-0.6009446382522583
1790032085960885000,8.959885009765625,-0.28969839215278625,-0.272938996553421,-0.8738836050033569
1790032085980935000,8.979934814453125,-0.363918662071228,-0.1843535304069519,-0.871489405632019
1790032086020974000,9.01997412109375,-0.5482721924781799,-0.08140286058187485,-0.6703764796257019
1790032086040993500,9.03999365234375,-0.4141969084739685,-0.4141969084739685,-0.7206547260284424
1790032086061043700,9.060043701171875,-0.2346317619085312,0.0454898327589035,-0.43095630407333374
1790032086081063200,9.080063232421875,-0.31842881441116333,0.1388636976480484,-0.3519476354122162
1790032086091073000,9.090072998046875,-0.5195417404174805,0.07661445438861847,-0.395043283700943
1790032086121102300,9.120102294921875,-0.28969839215278625,0.13168109953403473,-0.33758243918418884
1790032086151131400,9.15013134765625,0.0454898327589035,0.10295066982507706,0.05985504388809204
1790032086181160700,9.18016064453125,0.45489832758903503,0.043095629662275314,-0.1173158809542656
1790032086201180400,9.200180419921875,0.6392518281936646,-0.002394201699644327,-0.2585737705230713
1790032086241280500,9.240280517578125,1.2689268589019775,0.2753331959247589,-0.44771572947502136
1790032086311410000,9.310409912109375,2.561795711517334,-0.033518824726343155,-0.5147533416748047
1790032086321419500,9.32041943359375,2.52109432220459,0.2059013396501541,-0.569819986820221
1790032086331399000,9.33039892578125,2.4444799423217773,0.6631938815116882,-0.5219359993934631
1790032086341469700,9.3404697265625,2.580949544906616,0.3471592366695404,-0.7805097699165344
1790032086351479300,9.350479248046875,2.741360902786255,0.10534487664699554,-0.8786720037460327
1790032086361458700,9.360458740234375,2.9712042808532715,0.05985504388809204,-0.8355764150619507
1790032086371529500,9.370529541015625,3.162740468978882,0.038307227194309235,-0.912190854549408
1790032086381539300,9.380539306640625,2.964021682739258,0.1628057211637497,-0.7733271718025208
1790032086451668700,9.450668701171875,2.2194249629974365,-0.16519992053508759,-1.4748282432556152
1790032086531807700,9.530807861328125,1.9752163887023926,-0.8331822156906128,-1.7908629179000854
1790032086541848000,9.54084814453125,2.013523578643799,-0.6919242739677429,-1.7717092037200928
1790032086561898000,9.56089794921875,1.3120225667953491,-1.0031704902648926,-1.8411411046981812
1790032086581917700,9.580917724609375,0.7661445140838623,-1.0821791887283325,-1.5897499322891235
1790032086591896800,9.590896728515625,0.8954314589500427,-1.235408067703247,-1.3335703611373901
1790032086601937200,9.600937255859375,1.1563993692398071,-1.2976573705673218,-1.0247182846069336
1790032086611947000,9.610947021484375,3.2345664501190186,-1.4844050407409668,-0.768538773059845
1790032086621987300,9.6209873046875,2.999934673309326,-0.9864110946655273,-1.4389152526855469
1790032086632027400,9.63102734375,1.237802267074585,-0.8307880163192749,-1.5825673341751099
1790032086642067700,9.641067626953125,0.22505496442317963,-1.381454348564148,-2.1978771686553955
1790032086662118000,9.661117919921875,-0.8259995579719543,-1.0749965906143188,-2.22660756111145
1790032086672127500,9.67112744140625,-0.031124621629714966,-1.6519991159439087,-2.3750481605529785
1790032086682167800,9.681167724609375,0.21308395266532898,-2.0901381969451904,-2.5713725090026855
1790032086702218000,9.701218017578125,1.699883222579956,-1.5873557329177856,-2.674323320388794
1790032086712227600,9.7112275390625,1.2066776752471924,-0.9552865028381348,-2.956839084625244
1790032086722237400,9.721237548828125,0.4189853072166443,-1.0247182846069336,-2.497152328491211
1790032086732277800,9.73127783203125,0.5027823448181152,-1.766920804977417,-2.3774423599243164
1790032086742287600,9.74128759765625,0.33758243918418884,-2.0853497982025146,-2.5546131134033203
1790032086752327700,9.75132763671875,0.5363011956214905,-2.0015525817871094,-3.047818660736084
1790032086802407200,9.8014072265625,-1.0103530883789062,-1.2258312702178955,-3.2417490482330322
1790032086812417000,9.8114169921875,-1.3239935636520386,-1.4844050407409668,-3.179499864578247
1790032086872536600,9.87153662109375,-1.8842366933822632,-1.6304513216018677,-2.0901381969451904
1790032086912606200,9.911606201171875,-2.030282974243164,-1.941697597503662,-2.188300371170044
1790032086942635500,9.941635498046875,-3.134010076522827,-1.3311761617660522,-2.7461493015289307
1790032087012734200,10.011734130859375,-4.5825018882751465,-0.4165911078453064,-1.5825673341751099
1790032087032784400,10.031784423828125,-3.778050184249878,-1.2713210582733154,-2.1164743900299072
1790032087042794000,10.0417939453125,-4.180276393890381,-0.7398083209991455,-2.1978771686553955
1790032087082833200,10.081833251953125,-5.925649166107178,-0.5841852426528931,-1.455674648284912
1790032087112862500,10.111862548828125,-4.824316501617432,-0.40701428055763245,-2.1308395862579346
1790032087122872300,10.121872314453125,-4.651933670043945,0.27054479718208313,-2.0853497982025146
1790032087132851500,10.1318515625,-5.12119722366333,0.5386953949928284,-1.5203180313110352
1790032087142891800,10.141891845703125,-5.372588634490967,0.272938996553421,-0.9169792532920837
1790032087152932000,10.15193212890625,-4.757278919219971,-0.44532153010368347,-0.689530074596405
1790032087162941700,10.161941650390625,-4.201824188232422,-0.9026140570640564,-1.01753568649292
1790032087182961400,10.18196142578125,-4.788403511047363,-0.3734954595565796,-1.5682021379470825
1790032087192971000,10.191970947265625,-5.4659624099731445,0.15083470940589905,-1.5921441316604614
1790032087202980900,10.20198095703125,-4.8937482833862305,-0.011971008032560349,-1.3766659498214722
1790032087212990700,10.21199072265625,-3.5218706130981445,-0.5530605912208557,-0.9720458984375
1790032087223031000,10.222031005859375,-3.220201253890991,-1.1013327836990356,-1.1803414821624756
1790032087243081000,10.2420810546875,-3.931279182434082,-0.5602431893348694,-1.3886369466781616
1790032087253090800,10.2520908203125,-3.734954595565796,-0.1149216815829277,-1.5514427423477173
1790032087263161600,10.26216162109375,-3.292027235031128,-0.035913024097681046,-1.6424223184585571
1790032087273171200,10.272171142578125,-3.2848446369171143,-0.4836287498474121,-1.2234370708465576
1790032087303231200,10.302231201171875,-2.166752576828003,-0.7015010714530945,-1.8698714971542358
1790032087313271300,10.312271240234375,-2.3367409706115723,-0.4213795065879822,-1.7573440074920654
1790032087343300600,10.342300537109375,-1.4508862495422363,-1.158793568611145,-1.2449848651885986
1790032087413369000,10.412369140625,-1.6615760326385498,-1.3646949529647827,-2.3271639347076416
1790032087443459300,10.442459228515625,-1.3192051649093628,-1.2090718746185303,-2.7964274883270264
1790032087453469200,10.45246923828125,-0.6248866319656372,-1.1180921792984009,-2.7748796939849854
1790032087463509500,10.462509521484375,-0.016759412363171577,-0.768538773059845,-2.255337953567505
1790032087473519000,10.47251904296875,-0.004788403399288654,-0.5793967843055725,-1.7693150043487549
1790032087483529000,10.482529052734375,-0.47405192255973816,-0.8331822156906128,-1.702277421951294
1790032087493538800,10.492538818359375,-1.5394717454910278,-1.1875240802764893,-1.7286136150360107
1790032087503548400,10.50254833984375,-2.056619167327881,-1.2856862545013428,-1.9919757843017578
1790032087513588700,10.512588623046875,-1.6352397203445435,-1.2042834758758545,-2.4636335372924805
1790032087543648500,10.5426484375,0.18914192914962769,-1.1348515748977661,-1.3958195447921753
1790032087553688800,10.552688720703125,-0.22026655077934265,-1.2832920551300049,-1.3958195447921753
1790032087563729200,10.562729248046875,-0.9169792532920837,-1.6974890232086182,-1.9632453918457031
1790032087573739000,10.572739013671875,-0.9217676520347595,-1.5275006294250488,-2.4372973442077637
1790032087583748600,10.58274853515625,-0.3902548849582672,-1.3862427473068237,-2.801215887069702
1790032087613778000,10.61277783203125,0.33279404044151306,-1.4963760375976562,-1.4628572463989258
1790032087633797600,10.632797607421875,-0.4668693244457245,-1.7142484188079834,-2.3343467712402344
1790032087643776800,10.64277685546875,-0.5626373887062073,-1.0773907899856567,-2.537853717803955
1790032087653817000,10.652817138671875,0.14604631066322327,-0.5219359993934631,-2.695871114730835
1790032087693886700,10.69288671875,-0.08140286058187485,-1.9752163887023926,-1.3311761617660522
1790032087733956000,10.7329560546875,1.3048399686813354,-0.5027823448181152,-2.0661959648132324
1790032087743966000,10.742966064453125,0.8810662031173706,-0.8882488012313843,-0.7110779285430908
1790032087764016000,10.76301611328125,-1.1563993692398071,-1.8698714971542358,-1.1252747774124146
1790032087774025700,10.773025634765625,-0.7422025203704834,-1.987187385559082,-2.1140801906585693
1790032087784035600,10.78303564453125,-0.33039984107017517,-1.6759412288665771,-2.5258827209472656
1790032087794076000,10.793075927734375,0.15562310814857483,-1.3910311460494995,-2.4013843536376953
1790032087804085500,10.80308544921875,1.4508862495422363,-1.237802267074585,-1.8746598958969116
1790032087814125800,10.813125732421875,1.434126853942871,-1.2282254695892334,-1.623268723487854
1790032087824135700,10.8231357421875,0.9576807022094727,-0.8690952062606812,-0.6631938815116882
1790032087834114800,10.83311474609375,0.12210428714752197,-0.5937620401382446,-0.7757213711738586
1790032087844124700,10.843124755859375,0.090979665517807,-0.9433154463768005,-1.1994950771331787
1790032087854165000,10.8531650390625,0.17238251864910126,-1.3287819623947144,-1.4724340438842773
1790032087874184400,10.873184326171875,0.031124621629714966,-1.1827356815338135,-1.3407529592514038
1790032087884163800,10.883163818359375,-0.17956513166427612,-0.9959878921508789,-1.4173674583435059
1790032087894204000,10.893203857421875,-0.009576806798577309,-1.0319008827209473,-1.702277421951294
1790032087904213800,10.9032138671875,0.14604631066322327,-0.8331822156906128,-1.5945383310317993
1790032087914223600,10.9132236328125,0.10773907601833344,-0.6105214357376099,-1.2976573705673218
1790032087924264000,10.923263916015625,0.06464344263076782,-0.6847416758537292,-0.9959878921508789
1790032087934273500,10.9332734375,0.4620809257030487,-0.8571242094039917,-0.6105214357376099
1790032087944313900,10.94331396484375,0.26336219906806946,-0.9888052940368652,-0.3878606855869293
1790032087974404000,10.973404052734375,-0.2082955539226532,-0.8236053586006165,-1.05105459690094
1790032087984414000,10.9834140625,-0.4118026793003082,-0.6967126727104187,-1.0223240852355957
1790032088034493400,11.033493408203125,0.1149216815829277,-0.6991068720817566,-0.49559974670410156
1790032088044503000,11.0435029296875,0.10773907601833344,-0.6703764796257019,-0.4381389021873474
1790032088054513000,11.053512939453125,-0.15801730751991272,-0.8762778043746948,-0.7254431247711182
1790032088114602000,11.11360205078125,0.019153613597154617,-0.5339069962501526,-0.43095630407333374
1790032088124611800,11.12361181640625,-0.33279404044151306,-0.569819986820221,-0.4141969084739685
1790032088134621400,11.133621337890625,-0.7254431247711182,-0.5841852426528931,-0.629675030708313
1790032088144631300,11.14363134765625,-0.8020575642585754,-0.4405331015586853,-0.6991068720817566
1790032088154671600,11.153671630859375,-0.6751648783683777,-0.5339069962501526,-0.6943184733390808
1790032088184731400,11.1837314453125,-0.19871874153614044,-0.44532153010368347,-0.5219359993934631
1790032088204750800,11.203750732421875,-0.33039984107017517,-0.507570743560791,-0.4692635238170624
1790032088214791200,11.213791259765625,-0.3256114423274994,-0.6703764796257019,-0.524330198764801
1790032088224801000,11.223801025390625,-0.5650315880775452,-0.4644751250743866,-0.6727706789970398
1790032088234780200,11.2337802734375,-0.6320692300796509,-0.5099649429321289,-0.7757213711738586
1790032088244820500,11.243820556640625,-0.6607996821403503,-0.363918662071228,-0.8954314589500427
1790032088254799600,11.253799560546875,-0.4381389021873474,-0.22744916379451752,-0.7637503147125244
1790032088274849800,11.273849853515625,-0.090979665517807,-0.20111294090747833,-0.9457096457481384
1790032088344918000,11.34391796875,-0.11252748221158981,0.12210428714752197,-0.49320554733276367
1790032088364968200,11.36396826171875,-0.16519992053508759,0.15801730751991272,-0.6153098344802856
1790032088435128000,11.434128173828125,0.0694318488240242,0.1867477297782898,-0.5506663918495178
1790032088445168400,11.44416845703125,-0.06703764945268631,0.22744916379451752,-0.3495534360408783
1790032088455208700,11.454208740234375,0.15083470940589905,0.4213795065879822,-0.2561795711517334
1790032088465249000,11.4642490234375,0.07182604819536209,0.2825157940387726,-0.3734954595565796
1790032088475258600,11.474258544921875,-0.026336219161748886,0.33997663855552673,-0.2585737705230713
1790032088485268500,11.4842685546875,0.15562310814857483,0.38067805767059326,-0.13407529890537262
1790032088495339300,11.49433935546875,0.14844051003456116,0.3926490843296051,-0.1867477297782898
1790032088505379600,11.504379638671875,0.0694318488240242,0.22744916379451752,-0.21787235140800476
1790032088515389400,11.514389404296875,0.3064578175544739,0.2059013396501541,-0.24181437492370605
1790032088525399000,11.52439892578125,0.20111294090747833,0.19632454216480255,-0.3495534360408783
1790032088545418500,11.54441845703125,-0.31124621629714966,0.38307225704193115,-0.38067805767059326
1790032088555398000,11.55439794921875,-0.1173158809542656,0.44532153010368347,-0.49799394607543945
1790032088565438200,11.564438232421875,0.1412578970193863,0.35434186458587646,-0.5674257874488831
1790032088575478500,11.574478515625,0.5650315880775452,0.19632454216480255,-0.47165772318840027
1790032088585488100,11.584488037109375,0.9265560507774353,0.2849099934101105,-0.545877993106842
1790032088595498000,11.594498046875,1.048660397529602,0.40701428055763245,-0.3256114423274994
1790032088605477000,11.60447705078125,1.1971008777618408,0.45010992884635925,-0.2346317619085312
1790032088615548000,11.6145478515625,1.2545616626739502,0.5410895943641663,-0.3734954595565796
1790032088645638400,11.644638427734375,1.2425906658172607,0.586579442024231,-0.3974374830722809
1790032088655648000,11.65464794921875,1.5490485429763794,0.5027823448181152,-0.6703764796257019
1790032088685738500,11.684738525390625,1.7405846118927002,0.6105214357376099,-0.4189853072166443
1790032088705788400,11.704788330078125,2.408566951751709,0.28730419278144836,-0.6799532771110535
1790032088715798300,11.71479833984375,2.5067291259765625,0.24660277366638184,-0.8020575642585754
1790032088745827600,11.74482763671875,2.7006595134735107,0,-1.1252747774124146
1790032088755868000,11.754867919921875,2.693476915359497,-0.2968810200691223,-1.2976573705673218
1790032088765908200,11.764908203125,2.5306711196899414,-0.42377370595932007,-1.1444283723831177
1790032088775917800,11.774917724609375,2.676717519760132,-0.24899697303771973,-0.9528923034667969
1790032088785927700,11.784927734375,2.671929121017456,-0.27054479718208313,-1.0199298858642578
1790032088795937500,11.7949375,3.1196448802948,-0.7541735172271729,-1.048660397529602
1790032088805947100,11.804947021484375,2.5785553455352783,-1.2090718746185303,-1.290474772453308
1790032088815987500,11.814987548828125,2.585737943649292,-0.9959878921508789,-1.2521674633026123
1790032088826027800,11.82502783203125,2.6168625354766846,-0.7086837291717529,-1.3766659498214722
1790032088836037600,11.83503759765625,2.0685901641845703,-0.8307880163192749,-1.6496049165725708
1790032088856087600,11.855087646484375,1.9967641830444336,-0.7206547260284424,-1.5610195398330688
1790032088876137700,11.8751376953125,2.252943754196167,-1.070208191871643,-1.7573440074920654
1790032088886147300,11.885147216796875,1.8962076902389526,-1.3096283674240112,-1.9704279899597168
1790032088896157200,11.8951572265625,1.7884687185287476,-1.2186486721038818,-2.013523578643799
1790032088906166800,11.905166748046875,2.027888774871826,-1.137245774269104,-2.0877439975738525
1790032088916207000,11.91520703125,1.5729905366897583,-1.0055646896362305,-1.946485996246338
1790032088926217000,11.925217041015625,1.2737152576446533,-1.094150185585022,-1.9297266006469727
1790032088936226800,11.935226806640625,1.1755530834197998,-1.4628572463989258,-2.319981336593628
1790032088956246300,11.955246337890625,1.4676456451416016,-1.577778935432434,-2.2864625453948975
1790032088976296200,11.975296142578125,0.7589619159698486,-1.2976573705673218,-2.43011474609375
1790032088986306000,11.98530615234375,1.53707754611969,-1.9345149993896484,-2.497152328491211
1790032088996316000,11.99531591796875,1.2258312702178955,-2.1284453868865967,-2.250549554824829
1790032089006325500,12.005325439453125,0.1628057211637497,-1.6831238269805908,-2.0805611610412598
1790032089016335400,12.01533544921875,0.2849099934101105,-1.5442601442337036,-2.2409727573394775
1790032089026345200,12.02534521484375,0.7134721279144287,-1.7693150043487549,-2.540247917175293
1790032089046364700,12.04536474609375,0.6153098344802856,-1.987187385559082,-2.6168625354766846
1790032089056374500,12.05537451171875,0.6320692300796509,-1.9081788063049316,-2.937685489654541
1790032089066384100,12.065384033203125,0.7972691655158997,-1.5682021379470825,-2.9281086921691895
1790032089096444000,12.09544384765625,-0.8834604024887085,-1.6424223184585571,-2.449268341064453
1790032089106453800,12.105453857421875,-1.434126853942871,-1.7621324062347412,-2.7533318996429443
1790032089186715000,12.18571484375,-1.900996208190918,-1.9584569931030273,-2.58813214302063
1790032089196724700,12.195724853515625,-2.22660756111145,-1.7094600200653076,-2.7078421115875244
1790032089206765000,12.20576513671875,-2.96162748336792,-1.558625340461731,-2.561795711517334
1790032089216775000,12.21577490234375,-2.6384103298187256,-1.4269442558288574,-2.432508945465088
1790032089226784500,12.225784423828125,-1.9584569931030273,-1.3670891523361206,-2.0446481704711914
1790032089236824800,12.235824951171875,-0.3232172429561615,-1.7190368175506592,-1.6089035272598267
1790032089246804200,12.24580419921875,-0.3016694188117981,-2.0254945755004883,-1.3407529592514038
1790032089276864000,12.275864013671875,-2.9065608978271484,-1.400607943534851,-2.252943754196167
1790032089286843100,12.285843017578125,-3.5003228187561035,-0.950498104095459,-2.80361008644104
1790032089296883500,12.295883544921875,-2.7078421115875244,-0.9696516990661621,-2.516305923461914
1790032089306893300,12.305893310546875,-2.434903144836426,-1.1061211824417114,-2.612074136734009
1790032089326882300,12.32588232421875,-2.3965959548950195,-1.4628572463989258,-2.585737943649292
1790032089336922600,12.335922607421875,-2.734178304672241,-1.158793568611145,-2.2577321529388428
1790032089346932200,12.34593212890625,-2.7461493015289307,-1.0462661981582642,-2.0231003761291504
1790032089356972500,12.35597265625,-2.96162748336792,-1.01753568649292,-2.0853497982025146
1790032089367012900,12.366012939453125,-3.471592426300049,-0.7254431247711182,-2.006340980529785
1790032089377022700,12.376022705078125,-3.4620156288146973,-0.7757213711738586,-1.900996208190918
1790032089417153300,12.4161533203125,-5.398924827575684,-0.4213795065879822,-2.542642116546631
1790032089447152000,12.446152099609375,-3.6559460163116455,-0.42856210470199585,-1.556231141090393
1790032089457192200,12.456192138671875,-3.6535518169403076,-0.023942016065120697,-1.3862427473068237
1790032089467202000,12.4662021484375,-4.082113742828369,0.47884035110473633,-1.0055646896362305
1790032089487191000,12.48619091796875,-4.788403511047363,0.7350199222564697,-0.689530074596405
1790032089497261800,12.49626171875,-4.960785865783691,0.4189853072166443,-0.9217676520347595
1790032089507271700,12.506271728515625,-4.357447147369385,-0.06464344263076782,-1.4867992401123047
1790032089517281300,12.51628125,-4.041412353515625,0.026336219161748886,-1.7764976024627686
1790032089527291100,12.526291015625,-3.993528366088867,0.1867477297782898,-1.845929503440857
1790032089537301000,12.536301025390625,-4.460397720336914,0.395043283700943,-1.577778935432434
1790032089547341300,12.54634130859375,-4.900930881500244,0.6009446382522583,-1.4317326545715332
1790032089607400000,12.60639990234375,-3.6296098232269287,0.30885201692581177,-1.2258312702178955
1790032089627419400,12.62641943359375,-3.8738183975219727,-0.08619125932455063,-1.599326729774475
1790032089647438800,12.64643896484375,-3.155557870864868,0.05506663769483566,-1.4748282432556152
1790032089657479200,12.656479248046875,-2.9305028915405273,-0.19632454216480255,-1.5873557329177856
1790032089667489000,12.666489013671875,-2.829946517944336,-0.5051765441894531,-1.6136919260025024
1790032089677529000,12.676529052734375,-2.849100112915039,-0.6919242739677429,-1.7549498081207275
1790032089687508500,12.686508544921875,-2.9305028915405273,-0.2777273952960968,-1.886630892753601
1790032089697548800,12.696548828125,-2.8826189041137695,0.033518824726343155,-1.922544002532959
1790032089707558400,12.706558349609375,-2.784456491470337,0.16759411990642548,-1.98958158493042
1790032089737587700,12.736587646484375,-1.6136919260025024,-0.8451532125473022,-1.6543933153152466
1790032089767617000,12.766616943359375,-1.4101848602294922,-0.27054479718208313,-2.0183119773864746
1790032089777657300,12.7766572265625,-1.6089035272598267,-0.507570743560791,-2.075772762298584
1790032089787667200,12.786667236328125,-1.8363527059555054,-1.158793568611145,-2.1045033931732178
1790032089807686700,12.806686767578125,-1.6089035272598267,-0.8978256583213806,-2.3965959548950195
1790032089817727000,12.81672705078125,-1.4987702369689941,-0.6200982332229614,-2.1092917919158936
1790032089827736800,12.82673681640625,-1.6711528301239014,-0.6057330369949341,-2.1045033931732178
1790032089837746400,12.836746337890625,-1.2689268589019775,-0.9026140570640564,-2.4588451385498047
1790032089847786800,12.846786865234375,-0.9050082564353943,-1.2090718746185303,-2.82515811920166
1790032089857827000,12.8568271484375,-0.6368576288223267,-1.479616641998291,-2.7293899059295654
1790032089937996800,12.936996826171875,-0.11013327538967133,-1.1348515748977661,-2.0805611610412598
1790032089978066400,12.97706640625,0.5817909836769104,-0.8882488012313843,-1.721431016921997
1790032090028176100,13.027176025390625,1.3120225667953491,-0.9983820915222168,-1.237802267074585
1790032090038186000,13.03718603515625,1.5921441316604614,-0.6536170840263367,-0.912190854549408
1790032090058236000,13.05723583984375,0.9050082564353943,-0.6488286852836609,-1.4413094520568848
1790032090068276200,13.067276123046875,0.6512228846549988,-0.8236053586006165,-1.8315643072128296
1790032090078316500,13.077316650390625,-0.3734954595565796,-0.5937620401382446,-1.9584569931030273
1790032090088326400,13.087326416015625,-0.8523358106613159,-0.5674257874488831,-1.9273324012756348
1790032090098366700,13.09736669921875,-0.7996633648872375,-0.7469909191131592,-2.1595699787139893
1790032090108345900,13.107345947265625,-0.15083470940589905,-0.768538773059845,-2.1954829692840576
1790032090128396000,13.12739599609375,1.1420341730117798,-0.6177040338516235,-1.6400281190872192
1790032090188485000,13.187485107421875,0.24420857429504395,-0.4118026793003082,-1.5107412338256836
1790032090198494700,13.19749462890625,0.5793967843055725,-0.4908113479614258,-1.1755530834197998
1790032090268624100,13.2676240234375,0.26575639843940735,-0.706289529800415,-1.2641384601593018
1790032090308693800,13.30769384765625,-0.14844051003456116,-0.5626373887062073,-0.47405192255973816
1790032090348763400,13.347763427734375,-0.031124621629714966,-0.43335050344467163,-1.0295066833496094
1790032090358742500,13.357742431640625,-0.24181437492370605,-0.3208230137825012,-0.7038952708244324
1790032090368752400,13.36775244140625,-0.06224924325942993,-0.6584054827690125,-0.40222588181495667
1790032090378792700,13.377792724609375,0.035913024097681046,-0.8690952062606812,-0.37828385829925537
1790032090388802300,13.38780224609375,0.4572925269603729,-1.0414776802062988,-0.36152446269989014
1790032090398812200,13.397812255859375,0.33997663855552673,-0.8379706144332886,-0.4429273009300232
1790032090408822000,13.407822021484375,-0.24899697303771973,-0.42616790533065796,-0.5291185975074768
1790032090418831600,13.41783154296875,-0.5817909836769104,-0.3974374830722809,-0.44771572947502136
1790032090428811000,13.42781103515625,-0.49799394607543945,-0.7565677165985107,-0.48602294921875
1790032090448891400,13.447891357421875,-0.363918662071228,-0.9002198576927185,-0.9672574996948242
1790032090458901200,13.4579013671875,0.023942016065120697,-0.5171475410461426,-0.7661445140838623
1790032090498971000,13.497970947265625,-0.2585737705230713,-0.6751648783683777,-0.6368576288223267
1790032090529030700,13.52803076171875,0.2082955539226532,-0.43095630407333374,-0.933738648891449
1790032090559029500,13.558029541015625,-0.5171475410461426,-0.7110779285430908,-0.8092401623725891
1790032090609170000,13.608169921875,-0.1149216815829277,-0.4429273009300232,-0.1604115068912506
1790032090619179500,13.618179443359375,-0.0694318488240242,-0.706289529800415,-0.304063618183136
1790032090649208800,13.648208740234375,-0.3878606855869293,-0.7015010714530945,-0.5961562395095825
1790032090669259000,13.668259033203125,-0.08379705995321274,-0.6320692300796509,-0.706289529800415
1790032090679299300,13.67829931640625,0.06464344263076782,-0.507570743560791,-0.7110779285430908
1790032090689309000,13.688308837890625,-0.10534487664699554,-0.2513911724090576,-0.6943184733390808
1790032090709328600,13.70832861328125,-0.4189853072166443,-0.17956513166427612,-0.5219359993934631
1790032090729378600,13.728378662109375,0.1173158809542656,-0.2777273952960968,-0.48602294921875
1790032090759377400,13.75837744140625,0.12928688526153564,0.23942017555236816,-0.42616790533065796
1790032090769387000,13.768386962890625,0.3064578175544739,0.2537853717803955,-0.49559974670410156
1790032090779427300,13.77842724609375,0.30885201692581177,0.395043283700943,-0.5817909836769104
1790032090809456600,13.80845654296875,0.2106897532939911,0.4189853072166443,-0.5889736413955688
1790032090829506800,13.8285068359375,0.5003881454467773,0.6584054827690125,-0.5578489899635315
1790032090849556700,13.848556640625,0.6392518281936646,0.5746083855628967,-0.6177040338516235
1790032090859566600,13.858566650390625,0.6344634294509888,0.7493851184844971,-0.7086837291717529
1790032090869545700,13.868545654296875,0.4118026793003082,0.950498104095459,-0.6775590777397156
1790032090879586000,13.8785859375,0.15322890877723694,1.0558429956436157,-0.5578489899635315
1790032090899605500,13.89860546875,0.4692635238170624,0.7398083209991455,-0.3471592366695404
1790032090909615400,13.908615478515625,0.768538773059845,0.6129156351089478,-0.304063618183136
1790032090919655700,13.91865576171875,1.0414776802062988,0.5482721924781799,-0.2537853717803955
1790032090989785000,13.98878515625,0.8667010068893433,0.6033388376235962,-0.21787235140800476
1790032091069893600,14.0688935546875,1.6927006244659424,0.17717093229293823,-0.5267243981361389
1790032091089943800,14.08894384765625,1.802833914756775,0.11013327538967133,-0.586579442024231
1790032091099923000,14.0989228515625,1.9153614044189453,-0.090979665517807,-0.6751648783683777
1790032091109963300,14.10896337890625,1.7693150043487549,-0.17956513166427612,-0.7038952708244324
1790032091119973000,14.11897314453125,1.821987509727478,-0.22026655077934265,-0.8164227604866028
1790032091130013400,14.129013427734375,1.7693150043487549,-0.17956513166427612,-0.9097966551780701
1790032091180062200,14.179062255859375,1.525106430053711,-0.1364694982767105,-1.1492167711257935
1790032091270180600,14.2691806640625,1.1492167711257935,-1.280897855758667,-1.6735470294952393
1790032091320259800,14.319259765625,1.1444283723831177,-1.4724340438842773,-2.0254945755004883
1790032091330269700,14.329269775390625,1.1037269830703735,-1.338358759880066,-2.233790159225464
1790032091340279600,14.339279541015625,1.115697979927063,-1.381454348564148,-2.2433669567108154
1790032091350258700,14.3492587890625,1.2665326595306396,-1.482010841369629,-2.2002713680267334
1790032091360268500,14.3592685546875,0.790086567401886,-1.7621324062347412,-2.1284453868865967
1790032091380288000,14.3792880859375,0.5051765441894531,-1.8794482946395874,-2.164358377456665
1790032091390358800,14.38935888671875,0.4572925269603729,-1.9273324012756348,-2.516305923461914
1790032091400399000,14.399399169921875,0.6847416758537292,-1.7932571172714233,-2.3989901542663574
1790032091410409000,14.409408935546875,0.4908113479614258,-1.5945383310317993,-2.2242133617401123
1790032091470467300,14.46946728515625,0.2082955539226532,-2.279279947280884,-2.7006595134735107
1790032091480507600,14.479507568359375,-0.6224924325942993,-2.126051187515259,-2.896984100341797
1790032091510537000,14.509536865234375,-1.1468225717544556,-1.4724340438842773,-3.1507694721221924
1790032091520546800,14.519546875,-0.8188169598579407,-1.6903064250946045,-2.9041666984558105
1790032091530556700,14.529556640625,-0.24420857429504395,-1.9033904075622559,-2.7724854946136475
1790032091540535800,14.539535888671875,-0.7757213711738586,-1.8555063009262085,-2.7006595134735107
1790032091550576000,14.549576171875,-0.6727706789970398,-1.86508309841156,-2.8802247047424316
1790032091570626000,14.5696259765625,-0.4620809257030487,-1.623268723487854,-2.609679937362671
1790032091590645800,14.589645751953125,-1.280897855758667,-1.4676456451416016,-2.3582887649536133
1790032091600685800,14.599685791015625,-1.173158884048462,-1.6543933153152466,-2.3295583724975586
1790032091610695700,14.60969580078125,-1.2330138683319092,-1.778891921043396,-2.3271639347076416
1790032091620736000,14.619736083984375,-1.400607943534851,-1.525106430053711,-2.279279947280884
1790032091630745900,14.629745849609375,-1.5825673341751099,-1.4460978507995605,-2.298433542251587
1790032091640725000,14.63972509765625,-1.7836803197860718,-1.403002142906189,-2.0398597717285156
1790032091650734800,14.64973486328125,-1.5442601442337036,-1.1540051698684692,-1.7860745191574097
1790032091660805600,14.6598056640625,-2.188300371170044,-1.1683704853057861,-2.032677173614502
1790032091670815200,14.669815185546875,-2.4851813316345215,-1.4460978507995605,-2.008735179901123
1790032091700844500,14.699844482421875,-1.5131354331970215,-1.137245774269104,-1.4101848602294922
1790032091710854400,14.7098544921875,-1.403002142906189,-1.3646949529647827,-1.3718775510787964
1790032091720833500,14.71983349609375,-1.867477297782898,-1.436521053314209,-1.482010841369629
1790032091730843400,14.729843505859375,-2.3295583724975586,-1.3479355573654175,-1.7262194156646729
1790032091740883700,14.7398837890625,-3.641580820083618,-1.0845733880996704,-1.7812861204147339
1790032091750862800,14.74986279296875,-3.7014358043670654,-1.1228805780410767,-1.2090718746185303
1790032091760872700,14.759872802734375,-2.58813214302063,-1.3886369466781616,-0.9816226959228516
1790032091770913000,14.7699130859375,-1.4844050407409668,-1.601720929145813,-1.558625340461731
1790032091780923000,14.7799228515625,-1.091755986213684,-1.5083470344543457,-1.5131354331970215
1790032091790932500,14.789932373046875,-2.2194249629974365,-0.8571242094039917,-1.987187385559082
1790032091861031400,14.860031494140625,-3.1459810733795166,-0.29209262132644653,-2.7078421115875244
1790032091911141400,14.910141357421875,-4.5825018882751465,-0.07900865375995636,-2.0207061767578125
1790032091951180300,14.95018017578125,-4.022258758544922,0.20111294090747833,-1.4628572463989258
1790032091961190100,14.960190185546875,-4.537012100219727,0.35913026332855225,-1.53707754611969
1790032091971199700,14.97019970703125,-4.675876140594482,0.4596867263317108,-1.6903064250946045
1790032091981240000,14.980239990234375,-4.618414878845215,0.33039984107017517,-1.886630892753601
1790032091991250000,14.99025,-4.28322696685791,-0.016759412363171577,-1.5682021379470825
1790032092001229000,15.00022900390625,-3.507505416870117,-0.38307225704193115,-1.5394717454910278
1790032092031289000,15.0302890625,-3.60566782951355,0.29209262132644653,-1.6400281190872192
1790032092071328000,15.070327880859375,-3.047818660736084,-0.3208230137825012,-1.2042834758758545
1790032092081337900,15.080337890625,-2.671929121017456,-0.4189853072166443,-1.5275006294250488
1790032092091347500,15.090347412109375,-2.669534921646118,-0.0694318488240242,-1.525106430053711
1790032092101357300,15.100357421875,-2.499546527862549,0.17477671802043915,-0.7781155705451965
1790032092111336700,15.110336669921875,-2.449268341064453,-0.035913024097681046,-0.26575639843940735
1790032092131356200,15.130356201171875,-2.583343744277954,-0.2849099934101105,-1.278503656387329
1790032092141335300,15.140335205078125,-2.6024973392486572,-0.35434186458587646,-1.8722656965255737
1790032092151345200,15.15034521484375,-1.721431016921997,-0.7996633648872375,-2.1475989818573
1790032092171425800,15.17042578125,-1.2689268589019775,-0.6751648783683777,-1.525106430053711
1790032092181435400,15.180435302734375,-1.2258312702178955,-0.7469909191131592,-1.558625340461731
1790032092191445200,15.1904453125,-2.0207061767578125,-1.0127472877502441,-2.1811177730560303
1790032092201455000,15.200455078125,-2.6575639247894287,-1.2832920551300049,-2.4588451385498047
1790032092211464700,15.210464599609375,-1.7980455160140991,-0.9576807022094727,-2.6240451335906982
1790032092221474600,15.220474609375,-1.501164436340332,-0.8475474119186401,-2.7940332889556885
1790032092231484400,15.230484375,-1.2330138683319092,-0.9002198576927185,-2.5977089405059814
1790032092251473400,15.250473388671875,-1.1875240802764893,-1.3670891523361206,-2.319981336593628
1790032092261452500,15.26045263671875,-0.9696516990661621,-1.359906554222107,-2.4181437492370605
1790032092271492900,15.270492919921875,-1.2114660739898682,-1.173158884048462,-2.432508945465088
1790032092281502700,15.280502685546875,-1.1300631761550903,-1.01753568649292,-2.3487119674682617
1790032092291512300,15.29051220703125,-1.015141487121582,-0.7134721279144287,-2.3127987384796143
1790032092301552600,15.300552734375,0.038307227194309235,-1.158793568611145,-2.27209734916687
1790032092311562500,15.3105625,-0.31364041566848755,-1.434126853942871,-2.363077163696289
1790032092371682000,15.37068212890625,-1.1516109704971313,-1.1875240802764893,-1.766920804977417
1790032092381661200,15.3806611328125,-1.1228805780410767,-1.3838485479354858,-2.121262788772583
1790032092391701500,15.390701416015625,-0.33279404044151306,-1.53707754611969,-2.075772762298584
1790032092401711400,15.40071142578125,-0.24660277366638184,-1.6759412288665771,-2.346317768096924
1790032092411721200,15.41072119140625,-0.08140286058187485,-1.7334020137786865,-2.274491548538208
1790032092421730800,15.420730712890625,-0.3256114423274994,-1.5682021379470825,-2.3726539611816406
1790032092431740700,15.43074072265625,-0.9481038451194763,-1.1420341730117798,-1.867477297782898
1790032092441750500,15.44075048828125,-0.395043283700943,-1.3646949529647827,-1.889025092124939
1790032092451760000,15.450760009765625,-0.8236053586006165,-1.5705963373184204,-2.410961151123047
1790032092461739500,15.460739501953125,-1.2425906658172607,-1.522712230682373,-2.518700122833252
1790032092471779600,15.470779541015625,-0.1388636976480484,-1.7884687185287476,-2.7222073078155518
1790032092481789400,15.48078955078125,0.5937620401382446,-1.4700398445129395,-2.911349296569824
1790032092511788300,15.510788330078125,0.40462008118629456,-1.137245774269104,-1.7190368175506592
1790032092521828600,15.52082861328125,0.3423708379268646,-1.5298948287963867,-2.248155355453491
1790032092541848000,15.54084814453125,0.26096799969673157,-1.6687586307525635,-2.389413356781006
1790032092561837000,15.560837158203125,1.4844050407409668,-1.3215993642807007,-2.6360161304473877
1790032092571877400,15.57087744140625,1.5634137392044067,-1.0462661981582642,-2.580949544906616
1790032092581887200,15.58088720703125,1.137245774269104,-0.7469909191131592,-2.0207061767578125
1790032092601906700,15.60090673828125,1.1420341730117798,-1.6687586307525635,-1.4173674583435059
1790032092621926100,15.620926025390625,0.7996633648872375,-1.3407529592514038,-1.4652514457702637
1790032092631936000,15.63093603515625,0.8762778043746948,-1.0582371950149536,-1.3742717504501343
1790032092641945600,15.640945556640625,0.4189853072166443,-0.9600749015808105,-1.2832920551300049
1790032092651955500,15.65095556640625,0.7996633648872375,-1.2042834758758545,-1.4484920501708984
1790032092661995800,15.660995849609375,0.849941611289978,-1.094150185585022,-1.1420341730117798
1790032092672005600,15.671005615234375,0.4836287498474121,-1.0127472877502441,-0.5674257874488831
1790032092682015200,15.68101513671875,0.304063618183136,-1.3192051649093628,-0.5195417404174805
1790032092702065400,15.7010654296875,-0.35434186458587646,-1.2066776752471924,-0.7709329724311829
1790032092712075000,15.711074951171875,-0.06224924325942993,-1.1037269830703735,-1.0582371950149536
1790032092722084900,15.7210849609375,0.6392518281936646,-1.0630255937576294,-0.8667010068893433
1790032092732094700,15.7310947265625,0.9313444495201111,-1.1683704853057861,-0.9145850539207458
1790032092752144600,15.75114453125,0.1412578970193863,-0.5985504388809204,-0.2585737705230713
1790032092762154500,15.761154541015625,-0.07661445438861847,-1.137245774269104,-0.4381389021873474
1790032092772133600,15.771133544921875,-0.49799394607543945,-1.4293384552001953,-0.7996633648872375
1790032092782174000,15.781174072265625,-0.6560112833976746,-0.950498104095459,-1.2497732639312744
1790032092832253400,15.83125341796875,-0.16998831927776337,-0.43335050344467163,-0.9433154463768005
1790032092862343700,15.86134375,-0.7326257228851318,-0.9696516990661621,-0.6584054827690125
1790032092952462000,15.951462158203125,-0.6967126727104187,-0.5650315880775452,-0.9193734526634216
1790032093042672000,16.041672119140625,-0.15083470940589905,-0.6607996821403503,-0.5482721924781799
1790032093092690400,16.0916904296875,-0.5650315880775452,-0.5578489899635315,-0.5051765441894531
1790032093152779500,16.151779541015625,-0.1604115068912506,-0.07422025501728058,-0.2944868206977844
1790032093172860000,16.17185986328125,0.20350714027881622,-0.4644751250743866,-0.4165911078453064
1790032093192879600,16.191879638671875,0.5722141861915588,-0.17477671802043915,-0.5195417404174805
1790032093202920000,16.201919921875,0.3902548849582672,-0.004788403399288654,-0.3687070608139038
1790032093212929500,16.211929443359374,0.13168109953403473,0.10534487664699554,-0.3878606855869293
1790032093222939400,16.221939453125,0.05506663769483566,0.1149216815829277,-0.6105214357376099
1790032093263039500,16.26203955078125,0.706289529800415,0.19393034279346466,-0.8259995579719543
1790032093273079800,16.272079833984375,0.18914192914962769,0.4141969084739685,-0.727837324142456
1790032093283089400,16.28208935546875,-0.040701430290937424,0.5027823448181152,-0.26815059781074524
1790032093293099300,16.292099365234375,-0.17477671802043915,0.44532153010368347,-0.26096799969673157
1790032093303078400,16.302078369140624,-0.011971008032560349,0.38307225704193115,-0.304063618183136
1790032093313118700,16.31211865234375,0.08619125932455063,0.33758243918418884,-0.47405192255973816
1790032093353188400,16.352188232421874,0.5410895943641663,0.6727706789970398,-0.24420857429504395
1790032093363228700,16.362228759765625,0.05267243832349777,0.6177040338516235,-0.16519992053508759
1790032093373238500,16.372238525390625,-0.002394201699644327,0.7326257228851318,-0.08140286058187485
1790032093383248100,16.382248046875,0.2322375625371933,0.8044517636299133,-0.21547815203666687
1790032093403237000,16.402237060546874,0.45250412821769714,0.5554547905921936,-0.30885201692581177
1790032093423256800,16.4222568359375,0.6584054827690125,0.8068459630012512,-0.5003881454467773
1790032093433266400,16.432266357421874,0.28969839215278625,0.8523358106613159,-0.5817909836769104
1790032093443337200,16.442337158203124,0.33279404044151306,0.7805097699165344,-0.4213795065879822
1790032093453377500,16.45237744140625,0.4884171485900879,0.2968810200691223,-0.44771572947502136
1790032093463417900,16.46241796875,0.7182605266571045,0.07900865375995636,-0.4572925269603729
1790032093473427700,16.472427734375,0.8954314589500427,0.22744916379451752,-0.5171475410461426
1790032093483437300,16.482437255859374,1.2114660739898682,0.4213795065879822,-0.40701428055763245
1790032093543526400,16.5425263671875,1.4317326545715332,-0.12689268589019775,-0.7445967197418213
1790032093583596000,16.582595947265624,1.4915876388549805,-0.31364041566848755,-0.37828385829925537
1790032093603585000,16.6025849609375,1.6065093278884888,-0.38546648621559143,-0.6009446382522583
1790032093613595000,16.612594970703125,1.3335703611373901,-0.35434186458587646,-0.7876923680305481
1790032093623635200,16.62263525390625,1.525106430053711,-0.33518823981285095,-0.8403648138046265
1790032093633645000,16.63264501953125,1.5873557329177856,-0.569819986820221,-1.070208191871643
1790032093673714400,16.67271435546875,1.9393033981323242,-0.7134721279144287,-1.1228805780410767
1790032093683724300,16.682724365234375,1.9632453918457031,-0.871489405632019,-1.1348515748977661
1790032093693734100,16.692734130859375,2.051830768585205,-0.9911994934082031,-0.9672574996948242
1790032093703743700,16.70274365234375,1.9776105880737305,-1.0582371950149536,-1.0247182846069336
1790032093713753600,16.712753662109375,2.0374655723571777,-1.0295066833496094,-1.400607943534851
1790032093723824400,16.722824462890625,1.6639702320098877,-0.8810662031173706,-1.5131354331970215
1790032093733834200,16.732834228515625,2.0661959648132324,-0.9193734526634216,-1.580173134803772
1790032093743843800,16.74284375,1.766920804977417,-1.070208191871643,-1.6304513216018677
1790032093753853700,16.752853759765625,1.3455413579940796,-1.161187767982483,-1.4844050407409668
1790032093763863600,16.762863525390625,1.8842366933822632,-1.4389152526855469,-1.4389152526855469
1790032093773873200,16.772873046875,1.5753847360610962,-1.5610195398330688,-1.5969325304031372
1790032093783852500,16.7828525390625,1.4101848602294922,-1.3048399686813354,-1.37906014919281
1790032093793862100,16.792862060546874,1.8818424940109253,-1.4628572463989258,-1.5658079385757446
1790032093803902500,16.80290234375,1.8315643072128296,-1.5514427423477173,-1.8387469053268433
1790032093813912300,16.812912353515625,1.5322890281677246,-1.4700398445129395,-1.7908629179000854
1790032093823922000,16.822921875,1.070208191871643,-1.482010841369629,-1.9800047874450684
1790032093833931800,16.832931884765625,1.403002142906189,-1.6304513216018677,-2.1116859912872314
1790032093863961000,16.862961181640625,1.1899182796478271,-1.8291701078414917,-2.248155355453491
1790032093874001400,16.87300146484375,0.9265560507774353,-1.6663644313812256,-2.7461493015289307
1790032093884011300,16.88301123046875,1.3024457693099976,-1.5083470344543457,-2.9448680877685547
1790032093894020900,16.893020751953124,1.0797849893569946,-1.3670891523361206,-2.8826189041137695
1790032093904061200,16.903061279296875,0.5363011956214905,-1.3838485479354858,-2.7748796939849854
1790032093914071000,16.913071044921875,0.2777273952960968,-1.8363527059555054,-2.786850690841675
1790032093924080600,16.92308056640625,0.33997663855552673,-2.169146776199341,-2.808398485183716
1790032093934121000,16.933120849609374,-0.23702596127986908,-2.008735179901123,-2.9161376953125
1790032093944130800,16.943130859375,-0.6847416758537292,-1.7980455160140991,-2.873042106628418
1790032093964180700,16.9631806640625,-0.043095629662275314,-1.8171991109848022,-3.0885202884674072
1790032093974221000,16.973220947265624,-0.4908113479614258,-1.6831238269805908,-2.9975404739379883
1790032094004250400,17.00325048828125,-1.403002142906189,-2.1092917919158936,-2.942473888397217
1790032094014290700,17.013290771484375,-1.9273324012756348,-1.8770540952682495,-2.8562827110290527
1790032094054329900,17.053329833984375,-1.213860273361206,-2.1164743900299072,-2.875436305999756
1790032094114357800,17.113357666015624,-0.8858546018600464,-2.3798365592956543,-1.3407529592514038
1790032094124398000,17.123398193359375,-0.42856210470199585,-2.4612393379211426,-1.699883222579956
1790032094134408000,17.133407958984375,-1.0869675874710083,-2.0254945755004883,-1.9608511924743652
1790032094144387000,17.143386962890624,-1.6663644313812256,-1.580173134803772,-2.3295583724975586
1790032094154427400,17.153427490234375,-3.3662476539611816,-1.2401964664459229,-2.434903144836426
1790032094164437200,17.163437255859375,-3.471592426300049,-1.5682021379470825,-1.965639591217041
1790032094224495900,17.223495849609375,-0.8236053586006165,-1.7549498081207275,-1.1683704853057861
1790032094284523800,17.283523681640624,-5.154716491699219,-0.6560112833976746,-1.5418659448623657
1790032094334694700,17.333694580078124,-4.702212333679199,0.9433154463768005,-2.161964178085327
1790032094354744800,17.353744873046875,-4.07014274597168,0.181959331035614,-0.9289502501487732
1790032094364815600,17.363815673828125,-4.086902141571045,-0.8571242094039917,-1.237802267074585
1790032094374825500,17.373825439453125,-4.469974517822266,-1.580173134803772,-1.7357962131500244
1790032094384835000,17.3838349609375,-4.6734819412231445,-1.1540051698684692,-2.054224967956543
1790032094394845000,17.393844970703125,-4.2090067863464355,-0.08619125932455063,-1.9967641830444336
1790032094414894800,17.413894775390624,-3.6774938106536865,0.26096799969673157,-1.2737152576446533
1790032094424874200,17.423874267578125,-4.1180267333984375,-0.05506663769483566,-1.2689268589019775
1790032094434914600,17.43391455078125,-4.393360137939453,-0.30885201692581177,-1.4652514457702637
1790032094444954600,17.44395458984375,-4.10366153717041,-0.47884035110473633,-1.7286136150360107
1790032094454964500,17.453964599609375,-3.536235809326172,-0.43335050344467163,-1.7525556087493896
1790032094465004800,17.4640048828125,-4.000710964202881,-0.0933738648891449,-1.6112977266311646
1790032094474984000,17.47398388671875,-3.687070608139038,0.31364041566848755,-1.6208745241165161
1790032094495064600,17.494064697265625,-4.050989151000977,-0.2825157940387726,-1.9105730056762695
1790032094515084000,17.514083984375,-3.308786630630493,-0.42616790533065796,-1.5442601442337036
1790032094525094000,17.524093994140625,-3.3901896476745605,-0.31842881441116333,-1.5538369417190552
1790032094535134200,17.53413427734375,-3.361459255218506,0.0071826050989329815,-1.7597382068634033
1790032094545174500,17.544174560546875,-3.071760892868042,-0.07422025501728058,-1.965639591217041
1790032094555184000,17.55418408203125,-2.676717519760132,-0.19632454216480255,-2.2170307636260986
1790032094565224400,17.564224365234374,-2.427720546722412,-0.48602294921875,-2.1045033931732178
1790032094615304000,17.614303955078125,-2.0015525817871094,-0.8236053586006165,-1.745373010635376
1790032094645394200,17.644394287109375,-2.3247697353363037,-0.2753331959247589,-1.9321208000183105
1790032094655404000,17.654404052734375,-1.7046716213226318,-0.24660277366638184,-2.3104045391082764
1790032094715523600,17.714523681640625,-0.8044517636299133,-1.2761094570159912,-3.1507694721221924
1790032094725502700,17.724502685546874,-1.0773907899856567,-1.1851298809051514,-3.1962592601776123
1790032094765602800,17.764602783203124,-2.559401512145996,-1.0582371950149536,-3.6296098232269287
1790032094785622500,17.78462255859375,0.45489832758903503,-1.742978811264038,-4.091690540313721
1790032094795632000,17.794632080078124,1.5131354331970215,-1.678335428237915,-3.2968156337738037
1790032094805672400,17.80467236328125,0.6943184733390808,-1.280897855758667,-1.889025092124939
1790032094815682300,17.814682373046875,-0.26575639843940735,-1.01753568649292,-1.3263877630233765
1790032094825692200,17.824692138671875,-0.7422025203704834,-1.601720929145813,-2.3367409706115723
1790032094835701800,17.83470166015625,-1.1228805780410767,-1.944091796875,-3.0621838569641113
1790032094885781200,17.88478125,-0.768538773059845,-1.7717092037200928,-2.760514497756958
1790032094895760400,17.894760498046875,-0.6871358752250671,-1.944091796875,-2.451662540435791
1790032094905770200,17.904770263671875,-0.26575639843940735,-1.6519991159439087,-2.4636335372924805
1790032094915810600,17.914810546875,-0.2585737705230713,-1.3335703611373901,-2.557007312774658
1790032094935860500,17.934860595703125,0.689530074596405,-1.5107412338256836,-2.1092917919158936
1790032094945870300,17.944870361328125,0.44771572947502136,-1.9033904075622559,-1.9919757843017578
1790032094955910700,17.95491064453125,-0.22505496442317963,-2.0829553604125977,-2.0805611610412598
1790032094996010800,17.9950107421875,1.194706678390503,-1.1013327836990356,-2.5546131134033203
1790032095006020400,18.005020263671874,1.1324573755264282,-1.2880805730819702,-2.121262788772583
1790032095016030200,18.0150302734375,0.016759412363171577,-1.7190368175506592,-1.7908629179000854
1790032095026040000,18.0250400390625,-0.24899697303771973,-1.9919757843017578,-1.9153614044189453
1790032095036049700,18.035049560546874,-0.08379705995321274,-1.9369091987609863,-2.3104045391082764
1790032095046059500,18.0450595703125,0.26336219906806946,-1.6376339197158813,-2.434903144836426
1790032095056038700,18.05503857421875,0.6560112833976746,-1.8555063009262085,-2.2840683460235596
1790032095066109400,18.065109375,0.5602431893348694,-1.9967641830444336,-1.9345149993896484
1790032095076119300,18.075119384765625,-0.2561795711517334,-1.7717092037200928,-1.800439715385437
1790032095116127700,18.115127685546874,1.0749965906143188,-1.213860273361206,-1.216254472732544
1790032095136178000,18.135177978515625,0.035913024097681046,-2.1068975925445557,-1.280897855758667
1790032095196236500,18.195236572265625,-0.9864110946655273,-1.2880805730819702,-1.41257905960083
1790032095256325600,18.25532568359375,-0.43095630407333374,-1.7501614093780518,-1.039083480834961
1790032095316445200,18.315445068359374,0.14844051003456116,-1.2617442607879639,-0.6129156351089478
1790032095326485500,18.325485595703125,-0.4141969084739685,-1.1779472827911377,-0.8044517636299133
1790032095336495400,18.335495361328125,-0.7805097699165344,-1.292868971824646,-0.9576807022094727
1790032095346535700,18.34553564453125,-1.1061211824417114,-0.9840168952941895,-1.05105459690094
1790032095356545300,18.355545166015624,-1.0055646896362305,-0.6871358752250671,-1.2258312702178955
1790032095376626000,18.3756259765625,-0.7733271718025208,-0.031124621629714966,-1.824381709098816
1790032095416695600,18.415695556640625,-0.3495534360408783,-0.9744400978088379,-1.2330138683319092
1790032095426735900,18.42573583984375,0.363918662071228,-0.646434485912323,-0.9911994934082031
1790032095436776000,18.43577587890625,0.2059013396501541,-0.48602294921875,-1.0582371950149536
1790032095446785800,18.445785888671875,-0.45010992884635925,-0.4908113479614258,-1.1228805780410767
1790032095456826000,18.455826171875,-0.6560112833976746,-0.40222588181495667,-1.1109095811843872
1790032095466866400,18.465866455078125,-0.6560112833976746,-0.545877993106842,-1.213860273361206
1790032095476876000,18.4758759765625,-0.5195417404174805,-0.6009446382522583,-1.1013327836990356
1790032095496926200,18.49592626953125,-0.3663128614425659,-0.545877993106842,-0.768538773059845
1790032095547066600,18.546066650390625,-0.43095630407333374,0.011971008032560349,-0.2059013396501541
1790032095577187300,18.576187255859374,-0.17956513166427612,-0.5147533416748047,-0.31842881441116333
1790032095597207000,18.59620703125,-0.3256114423274994,0.0933738648891449,-0.31603461503982544
1790032095617257000,18.616257080078125,-0.18914192914962769,-0.5554547905921936,-0.10055647045373917
1790032095627297300,18.62629736328125,0.035913024097681046,-0.5506663918495178,-0.2298433631658554
1790032095637337600,18.636337646484375,0.26336219906806946,-0.363918662071228,-0.42377370595932007
1790032095647347200,18.64634716796875,0.507570743560791,0.023942016065120697,-0.6368576288223267
1790032095657357000,18.656357177734375,-0.08858546614646912,0.35913026332855225,-0.4141969084739685
1790032095667397400,18.6663974609375,-0.5267243981361389,0.2585737705230713,-0.2825157940387726
1790032095677437700,18.676437744140625,-0.4572925269603729,0.14365209639072418,-0.5650315880775452
1790032095687416800,18.686416748046874,-0.4836287498474121,0.12928688526153564,-0.5913678407669067
1790032095717476600,18.7164765625,0.38307225704193115,0.15562310814857483,-0.2825157940387726
1790032095727486500,18.726486572265625,0.727837324142456,0.6751648783683777,-0.38546648621559143
1790032095737526800,18.73652685546875,0,1.0462661981582642,-0.2513911724090576
1790032095757607400,18.756607421875,-0.22744916379451752,0.29209262132644653,-0.3232172429561615
1790032095777687800,18.776687744140624,-0.09576806426048279,0.3711012601852417,-0.38546648621559143
1790032095857827000,18.8568271484375,0.7829039692878723,0.5554547905921936,-0.35434186458587646
1790032095877877000,18.876876953125,1.0965443849563599,0.20111294090747833,-0.2825157940387726
1790032095887917300,18.886917236328124,1.2976573705673218,0.3495534360408783,-0.2753331959247589
1790032095897927200,18.89692724609375,1.5131354331970215,0.49320554733276367,-0.08619125932455063
1790032095907937000,18.90693701171875,1.8363527059555054,0.47405192255973816,-0.05985504388809204
1790032095917946600,18.916946533203124,1.8171991109848022,0.35434186458587646,-0.5147533416748047
